t_ms,ax,ay,az,gx,gy,gz
0,654,118,4010,23,65,74
10,669,109,4011,-12,68,64
20,662,64,4003,-44,72,53
30,616,46,3957,-36,64,60
40,611,40,3957,-31,49,72
50,647,66,4000,-31,36,60
60,670,24,4023,0,28,27
70,701,-32,4037,34,15,-1
80,729,12,4064,25,18,2
91,707,89,4096,-2,27,5
101,722,79,4110,-24,28,5
111,723,105,4088,-26,27,-2
121,677,95,4104,-35,33,14
131,653,122,4082,-51,29,28
141,640,157,4064,-52,22,31
151,608,147,4037,-54,22,19
161,604,45,4037,-40,12,3
172,617,32,4045,-12,4,-11
182,654,68,4091,-6,1,-30
192,649,113,4116,-9,-4,-33
202,678,104,4134,-5,-2,-44
212,688,129,4105,-12,-1,-35
222,675,168,4068,-32,18,-27
232,653,93,4069,-57,26,-23
242,655,29,4033,-35,25,-17
252,631,46,4021,-15,28,-21
263,625,75,4000,-11,10,-5
273,638,113,3993,-20,-1,23
283,659,122,4014,-33,6,31
293,624,45,4019,-70,12,33
303,641,-27,4009,-74,17,17
313,641,-26,4005,-63,17,-10
323,641,8,4002,-40,17,-31
333,637,88,3988,-22,15,-37
344,651,110,4024,-22,20,-13
354,634,91,4047,-38,17,30
364,651,28,4062,-33,5,39
374,642,32,4058,-42,9,47
384,591,94,3996,-65,7,56
394,608,114,4004,-78,24,38
404,589,15,3974,-107,31,11
414,550,6,3984,-82,14,15
424,595,22,4008,-64,5,16
435,630,24,4007,-77,-1,17
445,647,39,4027,-82,6,20
455,655,-92,4044,-93,29,-2
465,656,-136,4048,-71,36,1
475,657,-9,4069,-41,41,3
485,640,5,4069,-56,41,-15
495,636,-1,4029,-29,35,-24
505,612,18,4079,-14,25,-27
516,590,4,4050,-35,20,-18
526,575,-81,4002,-22,10,-12
536,593,-65,4017,24,-2,-37
546,639,-58,4079,29,7,-58
556,629,-52,4088,12,21,-58
566,642,-7,4117,2,22,-58
576,603,18,4071,-7,23,-40
586,596,26,4071,-6,25,-17
596,605,23,4052,8,22,1
607,617,72,4071,19,28,-1
617,616,79,4068,14,26,6
627,555,123,4024,20,22,16
637,532,132,4001,29,14,23
647,525,50,3995,6,10,8
657,512,21,3990,0,-2,8
667,519,20,3997,-7,-18,-6
677,553,-33,4000,-29,-22,-18
688,602,-77,3994,-18,-27,-29
698,631,-21,4058,4,-21,-36
708,656,5,4076,-9,-6,-12
718,651,48,4065,-36,4,38
728,683,71,4059,-47,18,80
738,670,40,4072,-67,47,105
748,658,-12,4001,-44,50,107
758,561,11,3968,31,41,91
768,514,34,3942,47,23,57
779,547,33,3942,77,-6,43
789,533,81,4003,84,-36,17
799,536,65,4007,54,-48,0
809,561,-5,4051,5,-59,-22
819,589,-31,4087,-41,-53,-33
829,602,-28,4077,-68,-53,-34
839,594,3,4050,-63,-54,-25
849,615,3,4036,-38,-51,6
860,548,-58,4010,-7,-57,20
870,383,-119,3990,35,-120,111
880,230,-154,3957,85,-238,228
890,318,-95,3891,200,-384,380
900,174,-93,3826,372,-544,531
910,538,80,3820,527,-544,495
920,379,380,3721,727,-564,391
930,951,410,3856,765,-481,202
940,1144,349,4062,438,-351,46
951,928,203,4039,69,-287,-72
961,963,68,4053,-116,-257,-165
971,974,89,4105,-187,-244,-257
981,1139,63,4233,-202,-215,-342
991,1281,226,4300,-272,-122,-452
1001,1314,450,4424,-386,28,-469
1011,1335,583,4488,-537,235,-437
1021,1277,521,4455,-643,459,-413
1031,613,67,4317,-670,505,-246
1041,317,-200,4170,-496,390,-101
1051,215,-428,4099,-275,260,-98
1061,81,-581,4084,-136,96,-129
1071,511,-497,4003,68,-114,-258
1081,693,-113,4068,228,-113,-389
1091,775,191,4059,257,-121,-485
1101,1312,377,4062,237,-95,-386
1111,1956,404,4074,111,254,802
1121,723,58,4071,15,377,587
1131,-364,-48,3960,137,342,213
1141,-326,112,4065,209,121,79
1151,255,321,4119,143,-79,22
1161,827,321,4116,61,-105,6
1171,982,117,4071,32,-29,41
1181,1359,-176,4007,-19,-19,-45
1191,615,-60,4047,152,257,248
1201,274,3,4159,254,148,53
1211,366,326,4092,217,137,42
1221,574,322,4132,198,74,31
1231,686,213,4155,146,116,51
1241,685,97,4111,140,126,58
1251,615,114,4087,175,146,63
1261,538,161,4101,173,143,45
1271,495,251,4064,123,131,28
1281,494,298,4035,89,117,16
1291,505,308,3921,70,92,12
1301,520,267,3916,78,71,2
1311,579,283,3912,63,66,0
1321,574,296,3865,66,63,-18
1331,589,233,3861,80,56,-28
1341,613,265,3875,92,50,-52
1351,612,350,3894,74,58,-57
1361,587,399,3928,40,44,-52
1371,610,363,3956,8,11,-54
1381,712,326,4006,-13,-11,-65
1391,770,266,4059,-55,-9,-61
1401,699,242,4018,-87,0,-79
1411,695,228,3988,-90,-19,-102
1421,715,234,3940,-72,-26,-98
1431,714,255,3968,-79,-32,-107
1441,747,263,3949,-79,-17,-118
1451,292,229,3842,-108,-86,-125
1461,-508,114,3695,-174,-286,-73
1471,2093,272,3061,9,233,-213
1480,-1253,24,2827,-230,-402,-84
1490,997,292,4931,-8,17,-58
1500,726,251,4122,2,-76,-110
1510,681,209,4099,-19,-99,-110
1520,692,238,3998,-10,-100,-96
1530,724,317,3980,-18,-103,-120
1540,760,369,3960,-31,-97,-130
1550,756,393,3930,-66,-91,-125
1560,756,355,3868,-91,-82,-119
1570,730,311,3833,-119,-85,-111
1580,719,200,3756,-95,-84,-96
1590,707,167,3792,-59,-102,-139
1600,675,299,3840,-17,-110,-124
1610,678,398,3916,-20,-143,-131
1620,1041,430,3980,-47,-151,-86
1630,992,236,3998,-95,-115,4
1640,878,218,3993,-90,-91,3
1650,925,383,4011,-79,-61,15
1660,998,485,4068,-121,-42,61
1670,968,421,4073,-199,-20,85
1680,947,303,4019,-232,13,65
1690,905,227,3966,-237,28,39
1700,863,255,3947,-207,24,39
1710,799,364,3912,-188,18,0
1720,744,440,3853,-160,-13,-38
1730,750,468,3864,-134,-50,-65
1740,801,532,3904,-144,-90,-70
1750,851,534,3920,-166,-84,-73
1760,915,490,3906,-186,-67,-28
1770,938,485,3919,-182,-39,39
1780,888,564,3940,-164,-13,66
1790,689,841,3911,-202,3,29
1800,615,902,3944,-196,-76,-89
1810,494,688,3823,-317,-108,-42
1820,335,589,3669,-261,-204,-166
1830,1463,-149,3798,-171,-163,-251
1840,1159,716,3774,37,-22,-245
1850,1184,744,3973,-76,82,-95
1860,970,475,3825,-182,143,46
1870,481,464,3848,-97,131,57
1880,356,557,3970,-28,59,33
1890,616,632,4026,-44,12,23
1900,909,642,4140,-108,0,28
1910,1028,488,4141,-186,48,77
1920,1000,274,4037,-193,98,125
1930,895,194,4038,-147,128,128
1940,797,193,4074,-88,124,121
1950,755,234,4006,-45,114,108
1960,704,246,4040,-25,86,111
1970,729,248,4072,-30,70,100
1979,868,183,4158,-45,73,83
1989,898,105,4179,-83,55,69
1999,891,39,4205,-75,57,55
2009,922,3,4238,-47,67,18
2019,944,6,4245,-30,81,11
2029,988,49,4207,-35,100,25
2039,1080,123,4110,-9,116,79
2050,907,145,4040,-9,131,89
2060,868,261,4124,-6,128,42
2070,1056,172,4191,-73,171,125
2080,909,-252,4152,-177,203,178
2090,857,-394,4047,-123,205,91
2100,869,-261,4070,-26,229,21
2110,758,-83,4098,37,218,-26
2120,688,10,4161,22,191,-63
2130,657,18,4142,-25,167,-85
2140,659,-18,4101,-49,157,-119
2150,636,-60,4000,-60,144,-158
2160,620,-76,3943,-57,121,-177
2170,501,-39,3998,-26,132,-190
2180,532,-57,4082,-42,55,-169
2190,585,-106,4115,-42,3,-137
2200,613,-150,4146,-69,-17,-104
2210,653,-244,4135,-106,-5,-33
2220,660,-333,4182,-90,34,16
2230,656,-363,4202,-86,57,30
2240,653,-344,4149,-92,74,55
2250,614,-307,4162,-70,86,49
2260,574,-294,4116,-52,93,35
2270,521,-253,4074,-32,96,22
2280,496,-239,4041,-6,93,16
2290,468,-291,4093,28,80,-10
2301,501,-352,4170,59,66,-37
2311,541,-392,4212,89,73,-40
2321,561,-356,4207,104,91,-34
2331,517,-328,4274,100,116,-27
2341,480,-350,4303,76,128,-19
2351,561,-506,4324,66,130,-6
2361,578,-598,4288,90,154,-12
2371,610,-650,4293,130,207,-32
2381,551,-587,4219,170,261,-44
2391,445,-467,4154,207,292,-60
2401,375,-335,4110,226,301,-65
2411,312,-264,4070,234,294,-81
2421,294,-273,4072,239,274,-102
2431,278,-252,4048,235,257,-104
2441,217,-184,4009,220,227,-127
2451,176,-158,4010,185,197,-151
2461,160,-144,3976,128,160,-155
2471,168,-185,3906,92,148,-164
2481,157,-229,3878,103,141,-173
2491,184,-234,3868,113,141,-168
2501,171,-203,3848,108,142,-170
2511,102,-161,3840,94,141,-172
2521,82,-83,3812,88,123,-184
2531,32,9,3765,90,104,-190
2541,-1,84,3765,60,83,-207
2552,-34,111,3696,29,50,-236
2562,-35,112,3626,23,21,-281
2572,-20,168,3577,13,7,-329
2582,-22,291,3520,-14,7,-379
2592,-32,512,3481,-107,7,-452
2602,-61,765,3423,-333,-6,-610
2612,-77,1006,3282,-729,-63,-947
2622,-1443,1294,2245,-1360,-1442,-981
2632,-91,1497,2114,-1165,-1132,-819
2642,906,1300,2054,-1352,-966,-1384
2652,937,1399,1452,-1602,-725,-1460
2662,113,1550,1119,-1719,-836,-1324
2672,-499,1710,792,-1855,-1093,-1440
2682,-604,1716,533,-1989,-1390,-1688
2692,-241,1615,343,-2215,-1759,-1849
2702,146,1435,195,-2439,-2091,-1962
2712,597,1174,262,-2753,-2318,-2179
2722,969,952,389,-3112,-2512,-2403
2732,1235,257,683,-3277,-2587,-2491
2742,1355,-471,642,-3526,-2794,-2698
2752,1707,-264,254,-3539,-2959,-2944
2762,2274,80,1257,-3406,-3020,-3103
2772,3417,-329,1958,-3860,-3170,-3127
2782,4597,-1133,1911,-4438,-3027,-2991
2792,5299,-1871,1826,-4732,-2722,-2751
2803,5566,-2429,1915,-4845,-2439,-2565
2813,5472,-2609,1986,-5053,-2155,-2342
2823,5245,-2735,2186,-5385,-1986,-2222
2833,5229,-3078,2263,-5639,-1919,-2179
2843,5254,-3676,2381,-5607,-1899,-2061
2853,5147,-4219,2517,-5531,-1932,-1976
2863,5352,-4699,2219,-5356,-1925,-1893
2873,5405,-4759,1163,-5153,-1961,-1792
2883,5433,-4156,1073,-4902,-1837,-1686
2893,5439,-2776,965,-5077,-1661,-1498
2903,5406,-1981,370,-5385,-1375,-1170
2913,5139,-2585,-115,-5555,-1074,-818
2923,4896,-3508,-555,-5762,-841,-482
2933,4710,-4216,-696,-5683,-589,-175
2943,4716,-5068,-403,-5407,-360,-62
2953,5139,-5908,-183,-5170,-154,-95
2963,5603,-5981,103,-4901,352,-290
2973,5717,-5299,509,-4146,953,-568
2983,5509,-4368,1258,-3648,1301,-472
2993,4946,-3353,1256,-3678,1440,-305
3003,4555,-2808,878,-3553,1521,-290
3013,4523,-2544,920,-3634,1609,-238
3023,4442,-2334,454,-3908,1668,-113
3033,4368,-2700,-989,-3555,1743,21
3043,4176,-3888,-1360,-2449,2142,222
3054,3670,-5052,-1852,-1007,2363,68
3064,3333,-5489,-2225,419,2682,-193
3074,2773,-5209,-3145,2076,3126,-622
3084,2196,-4023,-2890,4104,3635,-1198
3094,1556,-2514,-418,6025,4019,-1954
3104,1558,-1210,3428,6242,4326,-2562
3114,1210,597,6393,4294,3851,-2361
3124,1274,3183,6733,304,2976,-2265
3134,1521,3705,4945,-2999,2396,-1868
3144,1021,404,3258,-4609,1893,-2192
3154,1826,-2561,1392,-4327,1686,-2580
3164,2723,-3582,973,-2814,1480,-2325
3174,3528,-2890,1932,-1503,1313,-2309
3184,3635,-2291,1178,-958,969,-2107
3194,2275,-2543,1714,-366,1142,-2074
3204,2873,-874,303,395,235,-2155
3214,2590,984,1496,-16,5,-2045
3224,2872,2717,954,-1447,-531,-1958
3234,3081,2159,924,-2406,-886,-1704
3244,3386,233,742,-3300,-1152,-1490
3254,4102,-1388,335,-3574,-1066,-1325
3264,4156,-1564,-155,-3333,-1144,-1075
3274,3863,-565,-1169,-2787,-984,-933
3284,2849,-486,-749,-2060,-772,-666
3294,3029,-319,-1747,-1564,-996,-670
3305,3810,-1132,-820,-310,-1093,48
3315,4377,-2538,-24,-243,-1212,-63
3325,5697,-2622,-111,-812,-1000,-371
3335,4858,-2616,-1609,-1714,-917,-623
3345,6721,-2446,-607,-2066,319,-582
3355,5850,-4095,479,-1532,1218,-93
3365,3893,-5017,-779,-1867,2090,-1319
3375,4627,-4218,1253,-199,1881,-2035
3385,3765,-2575,1925,180,1779,-1638
3395,3300,-611,2448,-24,1208,-1703
3405,3407,673,2255,-718,775,-1558
3415,3377,1034,1695,-1779,445,-1324
3425,3480,392,1029,-2462,135,-1134
3435,3667,-876,814,-2679,-43,-950
3445,3920,-2049,892,-2645,-69,-799
3455,3929,-2864,1323,-2434,-27,-806
3465,3884,-3173,1671,-2229,-21,-992
3475,3740,-2905,1573,-1800,-14,-1164
3485,3823,-1825,1189,-1233,24,-1199
3495,4064,-619,1398,-778,194,-1156
3505,4068,-192,1935,-833,273,-1046
3515,3917,-231,2215,-1232,205,-925
3525,3624,-167,2175,-1432,83,-900
3535,3445,71,2116,-1512,-64,-867
3545,3571,117,1899,-1548,-192,-791
3556,3950,32,1696,-1708,-216,-757
3566,4285,0,1763,-1940,-119,-686
3576,4369,65,2131,-2154,99,-649
3586,4084,0,1928,-2129,198,-563
3596,3682,-581,1253,-1570,188,-289
3606,3712,-1026,789,-686,274,18
3616,4335,-1235,342,222,630,43
3626,4899,-1769,-241,1389,1145,-143
3636,5324,-2916,706,2781,2030,22
3646,4434,-2917,1244,2976,2239,-147
3656,3807,-2651,2759,3498,2406,-665
3666,3916,-2135,3846,3122,2207,-788
3676,3815,-1399,4723,2637,2188,-586
3686,2010,-424,5639,1022,1622,-453
3696,1273,-470,4965,-634,990,-595
3706,2221,-2079,4096,-1478,592,-790
3716,2532,-3400,3105,-1365,90,-883
3726,2875,-2823,2099,-910,-22,-908
3736,3172,-2483,3389,662,-227,-965
3746,2541,-2023,3258,2055,-770,-482
3756,2510,-1078,3241,2003,-1368,-298
3766,2900,-440,3318,1347,-1473,-559
3776,3248,37,2323,1542,-1605,-741
3786,3325,432,1760,1696,-1747,-595
3796,3844,-281,1824,1359,-1802,-315
3807,4446,-1007,1661,565,-1642,-85
3817,4397,-1197,1359,-69,-1360,-232
3827,4186,-759,1067,-316,-1126,-428
3837,3854,-358,545,-226,-1155,-305
3847,3905,-307,375,-243,-1246,21
3857,4627,52,284,-176,-920,165
3867,4759,193,122,43,-613,132
3877,4759,-156,-484,90,-253,491
3887,4420,-854,88,230,103,875
3897,3420,-1599,-1479,331,-30,878
3907,2407,-1703,-282,-357,383,605
3917,3234,-1203,-2024,350,-59,621
3927,3554,-1310,-939,1522,-16,1066
3937,3991,-1117,-113,989,789,876
3947,4306,-2425,587,1059,1201,416
3957,4424,-4747,467,-451,1534,458
3967,3400,-4555,-2482,473,1092,365
3977,3685,-1567,-2539,3197,1381,245
3987,3818,1204,-1043,5432,1348,519
3997,3791,1918,1187,5193,1343,381
4007,4221,1728,944,3361,966,-24
4017,4119,1574,239,2679,728,74
4027,4040,1403,843,2323,444,141
4037,4545,1221,961,1439,93,103
4047,5378,829,582,471,-203,201
4058,5963,105,-53,-319,-400,464
4068,6102,-756,-628,-800,-457,794
4078,5864,-1487,-921,-902,-431,1104
4088,5522,-1826,-886,-663,-399,1403
4098,5295,-1517,-621,-383,-433,1665
4108,5377,-710,-449,-258,-500,1871
4118,5591,40,-274,-261,-543,2065
4128,5586,295,-259,-441,-661,2321
4138,5263,222,-309,-602,-767,2601
4148,4858,90,-213,-743,-858,2793
4158,4559,57,-79,-816,-946,2898
4168,4304,-75,210,-858,-1082,2987
4178,4112,-281,515,-910,-1301,3062
4188,3926,-467,859,-977,-1588,3095
4198,3872,-655,954,-1013,-1944,2977
4208,3831,-1076,1085,-836,-2289,2897
4218,3852,-1715,748,-464,-2673,2785
4228,4058,-1961,146,340,-2675,2650
4238,4246,-2571,-541,1285,-2608,2721
4248,4475,-2838,-1038,2153,-2579,2266
4258,4797,-2157,-1408,2929,-1805,2050
4268,4479,-1678,-1099,3234,-1153,2311
4278,3819,-1701,-575,3101,-892,2555
4288,3633,-1907,-783,2411,-805,2511
4298,3707,-2003,-1422,2267,-526,2319
4309,4077,-1556,-634,2193,-316,2015
4319,4656,-550,-802,2215,43,1801
4329,4896,74,-716,2401,526,1915
4339,4532,25,-435,2402,943,2128
4349,4019,-373,154,2117,1241,2150
4359,3313,-739,1041,1673,1143,1817
4369,2869,-494,1309,1094,818,1284
4379,2732,-49,1559,799,460,868
4389,2424,157,1671,327,87,608
4399,2181,160,1363,-249,-288,328
4409,2356,102,820,-738,-513,143
4419,2717,-61,695,-1066,-564,121
4429,2920,-575,679,-1042,-602,56
4439,3246,-1505,275,-121,-643,-197
4449,3335,-1969,552,867,-693,-196
4459,3291,-1226,921,1203,-679,-232
4469,3367,108,1164,1039,-721,-409
4479,3456,950,1057,590,-809,-537
4489,3820,973,501,218,-754,-683
4499,4442,57,889,138,-404,-783
4509,4617,-1069,883,220,-279,-1067
4519,4688,-1145,669,497,-53,-1369
4529,4818,-102,888,799,157,-1753
4539,4660,1472,1114,443,349,-1944
4549,4508,2451,1439,-242,412,-1980
4560,4531,1436,1420,-731,275,-1997
4570,4728,-252,925,-1239,144,-2120
4580,4903,-901,451,-1480,181,-2487
4590,4878,-368,709,-1855,279,-2818
4600,4689,722,910,-2439,341,-3042
4610,4748,1262,1155,-3068,413,-3233
4620,5016,1237,1294,-3998,473,-3394
4630,5428,1246,1127,-5016,660,-3576
4640,5874,846,1025,-5765,997,-3699
4650,5966,260,359,-6499,1260,-3734
4660,6078,-412,74,-6989,1570,-3616
4670,6026,-432,-1013,-7536,1852,-3525
4680,5993,-798,-769,-7448,2212,-3301
4690,5641,-915,-866,-8015,2270,-3071
4700,5508,-605,-1026,-8385,2369,-2915
4710,5630,-467,-1070,-8799,2412,-2701
4720,5924,-670,-1266,-9443,2478,-2397
4730,6280,-872,-1504,-10278,2588,-2078
4740,6397,-1326,-2075,-10850,2722,-1695
4750,6230,-2235,-2410,-11066,2870,-1106
4760,5801,-3108,-2294,-10948,2956,-480
4770,5016,-3322,-2122,-10707,2853,5
4780,4477,-3012,-2180,-10309,2611,458
4790,4273,-3029,-2217,-9916,2350,908
4800,4286,-3617,-2083,-8975,2310,1210
4811,4277,-3706,-1562,-8199,2470,1396
4821,4442,-3505,-1264,-7297,2644,1350
4831,4401,-3077,-838,-6690,2838,1385
4841,4340,-2127,-199,-6176,3058,1274
4851,3912,-1245,260,-6169,3226,1133
4861,4120,-1359,-55,-5531,3301,1104
4871,3708,-1263,454,-5079,3290,1059
4881,3653,-973,306,-4693,3137,815
4891,3648,-697,556,-4211,2930,656
4901,3685,-256,582,-3764,2630,409
4911,3934,-258,297,-3316,2306,205
4921,4227,-572,-100,-2823,1990,8
4931,4079,-269,-271,-2360,1667,-180
4941,3992,-27,-543,-1869,1284,-292
4951,3945,92,-729,-1446,859,-359
4961,3769,420,-962,-1055,423,-444
4971,3680,603,-1042,-722,-37,-537
4981,3508,720,-1050,-450,-541,-644
4991,3367,638,-1006,-199,-1017,-733
5001,3358,486,-977,111,-1428,-830
5011,3461,271,-1022,498,-1745,-904
5021,3512,172,-997,870,-1977,-993
5031,3518,263,-829,1233,-2173,-1085
5041,3514,123,-774,1599,-2365,-1172
5052,3611,-19,-828,2007,-2495,-1277
5062,3717,10,-1032,2433,-2565,-1350
5072,3515,231,-1169,2832,-2625,-1472
5082,3997,203,-1465,3125,-2753,-1650
5092,4296,73,-1507,3439,-2851,-1575
5102,4378,-229,-1775,3811,-2981,-1592
5112,4566,-511,-2057,4438,-3111,-1622
5122,4839,-808,-2399,5167,-3282,-1575
5132,5049,-780,-2680,5905,-3465,-1581
5142,5379,-374,-2898,6611,-3637,-1600
5152,5909,29,-2990,7179,-3783,-1559
5162,6397,456,-3011,7640,-3937,-1448
5172,6773,799,-2832,8069,-4030,-1281
5182,7041,835,-2462,8397,-4096,-1063
5192,6916,885,-2384,8754,-4154,-853
5202,6727,930,-2077,9152,-4201,-564
5212,6747,744,-1950,9544,-4292,-233
5222,7001,446,-1896,9872,-4304,113
5232,7367,178,-1947,10209,-4226,409
5242,7578,321,-1898,10438,-4078,712
5253,7531,737,-1947,10490,-3922,1050
5263,7494,871,-1806,10437,-3755,1432
5273,7289,737,-1972,10311,-3562,1767
5283,7171,777,-2024,10269,-3346,2022
5293,7173,652,-1799,10324,-3257,2255
5303,6804,575,-1502,10300,-3326,2516
5313,6220,651,-973,10231,-3574,2763
5323,5916,712,-603,10063,-3903,2998
5333,6140,307,-576,10082,-4130,3208
5343,6338,-618,-481,10126,-4263,3485
5353,6237,-1032,-778,10090,-4282,3576
5363,6023,-603,-176,9912,-4204,3581
5373,5507,86,426,9338,-4305,3653
5383,4944,517,1311,8650,-4470,3729
5393,4195,-94,2041,7893,-4735,3694
5403,3651,-896,1892,7239,-4900,3444
5413,3699,-1326,876,7042,-4555,3132
5423,3484,-1719,550,6946,-4087,2784
5433,3227,-2210,220,7046,-3497,2327
5443,2665,-2380,80,7372,-2936,1846
5454,2394,-2453,-71,8129,-2346,1550
5464,1145,-2513,-11639,8987,-2528,1307
5474,1421,5120,-4341,1650,-1318,1966
5484,12647,22806,18723,-11962,11169,-1992
5494,4964,8040,9036,-4404,1596,-316
5504,-5419,-3868,9361,-3899,1896,2469
5514,-3293,-2103,5869,-8326,338,1183
5524,3364,753,2608,-7991,766,-981
5534,6193,-641,1345,-4593,2800,-2016
5544,5222,-2692,3073,-2570,3594,-1001
5554,3291,-1490,3333,-2193,3316,-513
5564,2690,813,2792,-1758,3273,-1210
5574,2995,1943,2533,-1685,3374,-1850
5584,3400,1895,2359,-2120,3309,-1989
5594,4090,1150,1735,-2455,3042,-2025
5604,4512,326,1008,-2272,2891,-2067
5614,4469,-139,538,-1784,2732,-2191
5624,4182,-6,241,-1347,2495,-2421
5634,3941,312,-43,-1085,2208,-2607
5644,3742,478,-337,-926,1963,-2740
5655,3640,272,-291,-773,1738,-2872
5665,3549,-95,-172,-653,1475,-3057
5675,3498,-359,-4,-465,1196,-3278
5685,3549,-339,223,-312,941,-3467
5695,3715,-156,560,-323,744,-3637
5705,3858,-11,824,-526,566,-3759
5715,4038,-84,928,-757,423,-3854
5725,4245,-344,995,-964,274,-3914
5735,4537,-685,932,-1121,167,-3984
5745,4961,-1104,889,-1168,73,-4067
5755,5426,-1412,865,-1256,60,-4143
5765,5783,-1686,811,-1220,128,-4224
5775,6074,-1910,845,-1164,214,-4267
5785,6364,-2036,852,-1141,318,-4286
5795,6604,-2109,783,-1074,430,-4223
5805,6603,-2175,613,-958,545,-4107
5815,6408,-2259,546,-845,669,-4001
5825,6166,-2400,452,-765,749,-3923
5835,6028,-2430,19,-685,768,-3887
5845,6121,-2373,-420,-473,828,-3849
5856,6196,-2329,-670,-149,904,-3715
5866,6054,-2321,-652,100,977,-3564
5876,5758,-2075,-572,235,967,-3430
5886,5327,-1661,-341,321,919,-3286
5896,4848,-1160,-46,187,792,-3045
5906,4357,-565,182,-127,703,-2774
5916,3789,17,313,-529,597,-2464
5926,3282,510,483,-1019,384,-2265
5936,2866,886,622,-1676,112,-2038
5946,2723,1465,546,-2341,-211,-1859
5956,2892,1944,724,-3028,-563,-1666
5966,3279,2309,589,-3868,-856,-1427
5976,3689,2185,542,-4580,-1077,-1175
5986,3840,1618,408,-5226,-1236,-898
5996,3909,1007,306,-5684,-1319,-694
6006,4094,421,-75,-5859,-1369,-510
6016,4215,-312,-417,-5739,-1350,-332
6026,4276,-1015,-782,-5429,-1292,-238
6036,4284,-1587,-1082,-4868,-1195,-189
6046,4270,-2012,-1147,-4186,-1075,-165
6057,4263,-2289,-1101,-3440,-982,-176
6067,4548,-2536,-1021,-2597,-891,-235
6077,5131,-2652,-779,-1786,-774,-351
6087,5796,-2785,-801,-1023,-615,-402
6097,6029,-2919,-601,-324,-380,-428
6107,5356,-2785,-366,94,-177,-439
6117,4282,-2250,-228,488,-12,-405
6127,3298,-1814,198,732,28,-295
6137,2515,-1637,458,794,-7,-141
6147,2063,-1545,722,861,-90,-32
6157,1951,-1407,953,978,-200,19
6167,2179,-1088,1207,1066,-342,11
6177,2563,-842,1334,1084,-480,8
6187,3071,-905,1499,1039,-582,14
6197,3604,-1149,1472,941,-686,62
6207,4150,-1442,1474,862,-730,115
6217,4696,-1671,1215,815,-757,170
6228,5276,-1764,797,846,-738,249
6238,5831,-1688,485,928,-700,341
6248,6120,-1532,256,994,-671,464
6258,6156,-1310,92,1080,-704,576
6268,6003,-1072,10,1250,-827,698
6278,6054,-739,336,1384,-971,894
6288,5933,-414,636,1042,-1123,1130
6298,5840,-315,528,742,-1260,1291
6308,5587,-287,464,509,-1368,1494
6318,5200,-126,527,309,-1472,1710
6328,4869,216,1083,-70,-1515,1931
6338,4740,289,1521,-471,-1655,1976
6348,4625,-112,1264,-658,-1825,2136
6358,4427,-338,692,-461,-1924,2361
6368,4390,-218,695,-147,-1816,2518
6378,4697,-119,501,5,-1585,2460
6389,5086,-406,184,252,-1230,2459
6399,5206,-834,-669,759,-684,2389
6409,5368,-1603,-1548,2083,19,2379
6419,5529,-2397,-1463,3699,847,2585
6429,5343,-2123,-2107,4910,1643,2553
6439,5545,-976,-1799,6489,2513,2553
6449,5002,757,-186,7546,3251,2508
6459,4072,2779,728,8020,3423,2207
6469,3699,3353,2764,7269,3367,2332
6479,2438,2324,4547,4953,2798,2106
6489,2250,815,4018,2660,2155,1463
6499,2573,-817,3626,891,1667,1294
6509,3149,-1681,2612,-962,1167,1044
6519,3528,-2477,1838,-1648,683,783
6529,2915,-3077,1058,-1142,33,602
6539,3180,-2758,-50,72,-393,699
6549,3572,-1182,433,453,-836,746
6560,3548,407,440,264,-1250,656
6570,3223,-43,234,193,-1831,982
6580,3081,-1394,-567,328,-2458,1334
6590,3946,-2164,-1023,874,-2622,1490
6600,4629,-2331,-618,1372,-2394,1601
6610,4421,-2047,-498,1580,-2145,1640
6620,4310,-1560,-1081,1519,-2019,1938
6630,4226,-581,-102,737,-1257,2442
6640,4039,-794,-833,88,-1160,2331
6650,3619,-3299,-267,-699,-779,2905
6660,4084,-3162,-2270,-82,-842,1981
6670,5070,-5185,-1473,1606,-236,2630
6680,3831,-4700,-547,1982,76,2207
6690,3773,-2512,-991,2055,438,1510
6700,4063,-1041,146,2129,805,1656
6710,3448,-1013,1028,1148,659,2013
6720,2628,-1655,875,-60,327,1828
6731,2391,-2603,514,-484,208,1401
6741,2622,-3046,487,-184,224,1209
6751,2646,-2321,577,291,52,1174
6761,2742,-1089,565,833,-73,1094
6771,2568,-910,676,1182,-168,1206
6781,2526,-1672,427,1157,-195,1268
6791,2913,-2489,-236,1072,-45,1042
6801,3650,-2670,-1110,1045,542,640
6811,3761,-2818,-1369,1432,1350,236
6821,3172,-3029,132,2062,1930,-346
6831,2558,-2658,-483,3796,1972,-428
6841,2914,-470,1937,4043,1577,-96
6851,3046,1985,1867,3033,1019,-450
6861,2355,1904,2593,1909,276,-384
6871,2068,-54,2378,734,-386,-683
6881,2181,-2028,1831,167,-737,-1197
6892,2593,-2890,2182,15,-928,-1685
6902,2250,-1658,2104,-3,-1047,-1802
6912,1815,-256,2711,-251,-1308,-1969
6922,2552,206,2607,-834,-1444,-2173
6932,3525,479,2462,-1472,-1181,-2369
6942,4344,1415,3395,-2464,-815,-2344
6952,4434,-67,-714,-1011,-689,-1792
6962,5420,-4114,55,914,-190,-736
6972,5433,-2783,2239,-1062,95,-1135
6982,5827,-256,2710,-1887,906,-1417
6992,4555,-555,4363,-2330,1200,-837
7002,4312,-2271,3064,-1954,1436,-453
7012,4890,-3990,3015,-1454,1743,156
7022,5449,-5794,2972,-963,2185,464
7032,4720,-6699,3240,-308,2147,390
7042,3891,-4525,2114,-355,1972,76
7052,3918,-1542,2343,-126,2017,108
7063,2670,-644,2563,217,1697,-47
7073,2257,-511,2287,725,1647,-82
7083,2723,928,3018,4,1574,107
7093,3415,-6,3097,-478,1297,295
7103,3112,-2720,3238,-333,1333,761
7113,3203,-3627,3457,-174,1589,898
7123,3072,-4089,3580,-25,1724,996
7133,2502,-4747,3710,23,1725,1225
7143,2302,-5486,3630,99,1731,1206
7153,2270,-5622,3442,327,1799,1058
7163,1714,-5257,3512,491,1854,897
7173,1233,-4870,3593,506,1825,684
7183,944,-4693,3778,480,1659,423
7193,709,-4499,4059,270,1386,280
7203,860,-3983,3625,-71,1148,259
7213,1067,-3636,3276,-114,1046,293
7223,1434,-2976,2636,-181,1209,276
7233,2452,-3228,2257,267,1284,148
7243,1945,-4154,2506,262,1372,1098
7253,2037,-4721,2441,214,1410,1177
7264,2418,-4733,1791,-39,1374,1147
7274,2405,-3824,1110,-169,1471,1305
7284,2442,-2895,921,-356,1624,1596
7294,2366,-3071,820,-523,1752,2097
7304,2394,-4962,1182,-13,2012,2607
7314,1835,-7183,1476,774,2237,2799
7324,800,-5285,172,887,1773,1961
7334,1595,-957,-213,1154,1457,1244
7344,1152,212,502,978,1034,1672
7354,1030,-1352,545,118,493,1634
7364,1524,-3025,436,108,358,1602
7374,1418,-3756,1201,576,229,1701
7384,1300,-3697,1921,852,85,1747
7394,1283,-3780,2198,979,-99,1759
7404,1368,-4373,2209,1088,-197,1753
7414,1453,-4786,2176,1139,-200,1735
7424,1406,-4221,1719,887,-106,1591
7434,1623,-3040,1353,790,133,1699
7444,1438,-3165,1734,680,201,2118
7454,1108,-3608,1685,280,179,2269
7465,1037,-3624,1802,184,150,2251
7475,864,-2938,1857,8,31,2223
7485,637,-2714,1893,-53,-74,2133
7495,507,-3047,1753,-121,-135,1928
7505,661,-3069,1649,-189,-131,1693
7515,845,-2777,1737,-76,-155,1585
7525,734,-2315,1738,25,-272,1643
7535,689,-1975,1838,174,-407,1728
7545,688,-2127,1666,357,-571,1846
7555,689,-2311,1777,322,-679,1882
7565,805,-1997,1842,295,-721,1794
7575,704,-1664,2180,257,-792,1744
7585,551,-1495,2076,133,-902,1696
7595,581,-1510,2251,-5,-965,1643
7605,618,-1480,2270,-276,-1026,1549
7615,742,-1432,2125,-324,-1079,1463
7625,877,-1455,2084,-143,-1083,1482
7635,899,-1459,2367,17,-1092,1506
7645,859,-1342,2554,73,-1110,1469
7655,813,-1278,2601,50,-1135,1402
7666,853,-1246,2702,-2,-1147,1312
7676,877,-1239,2845,-25,-1175,1238
7686,888,-1307,2847,-33,-1233,1162
7696,982,-1346,2798,-61,-1248,1096
7706,1114,-1490,2683,25,-1238,1042
7716,1201,-1661,2912,92,-1224,993
7726,1198,-1589,2900,65,-1237,933
7736,1231,-1549,2880,65,-1225,869
7746,1228,-1732,3015,91,-1188,827
7756,1206,-1794,2985,119,-1154,764
7766,1227,-1687,3064,189,-1113,715
7776,1197,-1580,3087,144,-1080,698
7786,1134,-1606,3076,93,-1030,693
7796,1031,-1650,3075,15,-1035,642
7806,1023,-1683,3037,9,-1053,582
7816,1016,-1778,3114,54,-1054,533
7826,917,-1803,3110,19,-1066,473
7836,949,-1717,3073,45,-1057,387
7846,1014,-1719,3223,60,-1043,342
7856,1001,-1827,3284,1,-1034,299
7867,958,-1932,3240,-8,-1019,256
7877,1004,-1994,3329,40,-1009,214
7887,1011,-2022,3450,49,-996,173
7897,1009,-1896,3482,11,-967,145
7907,936,-1927,3516,11,-957,127
7917,893,-2049,3475,-43,-981,115
7927,962,-1987,3414,-72,-987,59
7937,984,-1890,3427,-96,-974,1
7947,1000,-1913,3265,-144,-963,-12
7957,1014,-2048,3159,-108,-927,-36
7967,976,-2107,3206,-39,-894,-98
7977,959,-2028,3194,-8,-862,-153
7987,918,-1948,3203,38,-845,-198
7997,898,-1974,3132,-7,-856,-242
8007,950,-2065,3114,-3,-855,-283
8017,933,-2034,3033,32,-841,-298
8027,904,-2025,3095,69,-830,-322
8037,907,-2029,3064,-4,-845,-359
8047,986,-2079,2986,-48,-840,-402
8057,1052,-2175,2908,-81,-819,-446
8067,1082,-2347,2947,-118,-804,-484
8078,1057,-2402,2982,-157,-777,-489
8088,1077,-2304,2853,-161,-756,-487
8098,1145,-2285,2830,-120,-733,-448
8108,1118,-2336,2853,-133,-700,-405
8118,1039,-2396,2782,-178,-680,-421
8128,1033,-2429,2661,-113,-692,-476
8138,1067,-2423,2679,16,-719,-488
8148,1093,-2359,2649,41,-768,-481
8158,1154,-2295,2617,30,-825,-498
8168,1274,-2232,2543,-87,-855,-480
8178,1383,-2361,2408,17,-850,-432
8188,1425,-2867,2694,83,-834,-359
8198,1209,-3113,2615,-42,-863,-379
8208,1268,-2869,2497,-40,-900,-452
8218,1334,-2625,2440,-81,-942,-442
8228,1426,-2692,2310,-189,-977,-369
8238,1487,-3106,2238,-246,-990,-317
8248,1503,-3375,2524,-386,-1031,-355
8258,1828,-3590,2899,-225,-1065,-372
8268,1980,-3730,3419,-195,-1104,-285
8278,2128,-3681,3648,-187,-1090,-317
8288,2273,-3559,3881,-182,-1056,-286
8298,2143,-3557,3511,-22,-1106,-168
8308,2072,-3618,2848,234,-1083,43
8318,1839,-2389,3290,-587,-843,81
8329,1959,-2654,2232,-318,-692,-93
8339,1558,-3518,2201,-23,-518,158
8349,1282,-3435,1889,321,-480,6
8359,1019,-2970,2862,591,-615,-66
8369,713,-2393,3620,507,-1003,-150
8379,916,-2671,3884,351,-1336,-83
8389,1264,-3518,3806,97,-1450,7
8399,1463,-4328,3719,51,-1352,-31
8409,1709,-4598,3994,101,-1281,-57
8419,1924,-4543,4209,62,-1314,36
8429,1892,-4400,3959,-175,-1421,46
8439,1825,-4015,3049,-400,-1445,-65
8449,1854,-3727,2459,-535,-1431,-123
8459,1879,-3680,1655,-616,-1407,-25
8469,1995,-4230,1380,-292,-1292,251
8479,2169,-4856,1114,-14,-1093,482
8489,1829,-4349,871,242,-909,514
8499,1727,-3045,633,291,-847,465
8509,1583,-1740,-161,273,-1046,457
8519,1827,-1121,-681,690,-1295,322
8529,2308,-964,-291,619,-1474,280
8539,2946,-1773,360,175,-1614,871
8549,3554,-5200,374,1378,-1505,1547
8559,3216,-8267,461,2127,-1182,2354
8569,3241,-8552,-118,2876,-695,2158
8580,4130,-6005,188,3458,-51,1877
8590,3844,-3038,974,3151,43,2042
8600,2650,-1467,1991,1815,162,2277
8610,796,-3162,2476,675,-44,2383
8620,1064,-6650,1459,1047,183,1345
8630,2962,-3405,-7,1958,-622,327
8640,2930,501,-905,2254,-675,1264
8650,2385,-1487,-1246,3001,-698,1860
8660,2159,-1908,1433,1288,-58,1480
8670,2365,-855,1668,593,165,1102
8680,1447,-1153,3061,350,157,1601
8690,1134,-1888,2947,-159,2,1821
8700,1158,-3655,2131,613,-282,1974
8710,1685,-4762,1746,1833,-443,2476
8720,1167,-3250,2268,1761,-481,2497
8730,810,-2484,2479,1333,-710,2395
8740,450,-3583,2074,722,-1181,2506
8750,1457,-3896,191,1032,-1271,2435
8760,2459,-3546,230,1631,-1226,2740
8770,2397,-3000,27,1570,-1326,2668
8780,1772,-2218,-1102,1446,-1420,2654
8790,2619,-1130,-715,1510,-1123,2535
8800,2742,-887,98,1421,-1234,2327
8810,1972,-1821,94,1514,-1565,2327
8820,1704,-3500,-392,2039,-1739,2470
8831,2313,-3740,-1686,2693,-1699,2397
8841,2707,-2024,-1478,2685,-1414,2301
8851,1925,-321,-1531,2110,-1365,2229
8861,1793,-947,-1029,1525,-1347,2251
8871,1683,-2238,-833,1011,-1308,2154
8881,1376,-2541,-839,943,-1287,2069
8891,1358,-1903,-185,1016,-1273,2015
8901,1214,-1101,-222,795,-1382,2014
8911,1006,-1137,-95,597,-1463,1969
8921,798,-1776,-27,197,-1449,1947
8931,955,-2159,-133,-343,-1522,1675
8941,1381,-2463,-446,-757,-1738,1349
8951,1921,-3355,-1025,-816,-1777,1088
8961,2376,-4552,-1393,-708,-1741,799
8971,2998,-5604,-1553,-375,-1590,562
8981,3233,-6583,-778,-175,-1560,454
8991,3006,-7328,-46,-387,-1603,292
9001,3337,-8374,283,-490,-1650,148
9011,3722,-9830,381,-517,-1707,244
9021,3654,-10613,656,-438,-1540,453
9031,3191,-11454,313,-320,-1375,737
9041,3047,-11809,281,-252,-1139,1123
9051,2985,-12370,370,-337,-1061,1395
9061,3488,-13359,-465,-499,-907,1702
9072,3695,-13293,-1125,-924,-809,1997
9082,3573,-13460,-1230,-1191,-822,2482
9092,3436,-14033,-1267,-1147,-904,3175
9102,3679,-13751,-1160,-1062,-908,3975
9112,4191,-13432,-1287,-906,-918,4782
9122,4518,-13327,-970,-780,-919,5549
9132,4868,-13025,-255,-601,-907,6336
9142,5134,-12650,811,-413,-1030,7076
9152,5480,-12124,1614,-135,-1141,7815
9162,5605,-11167,2084,295,-1340,8398
9172,6043,-10140,2152,662,-1556,8859
9182,6197,-8796,2581,997,-1987,9138
9192,6480,-7233,2744,1582,-2476,9263
9202,6753,-5901,2893,2227,-2979,9173
9212,7509,-4426,2227,2602,-3301,8816
9222,8453,-3270,1197,2852,-3537,8353
9232,9610,-2652,119,3088,-3621,7890
9242,10447,-1940,-447,3275,-3688,7409
9252,11382,-929,-1236,3483,-3594,6944
9262,12122,34,-1311,3628,-3631,6654
9273,12511,1085,-1425,3642,-3797,6337
9283,13099,2543,-2127,3580,-3994,5837
9293,13291,4225,-2118,3838,-4166,5573
9303,13471,5841,-1640,3773,-4243,5331
9313,13201,7198,-942,3813,-4297,4771
9323,12535,7921,534,3708,-4588,4243
9333,11032,8204,1823,3232,-5102,2840
9343,9867,9459,1074,2922,-5727,809
9353,9675,12148,-504,2837,-5769,-1224
9363,10656,14614,-1341,2420,-5684,-2929
9373,11782,16694,-3380,1542,-5746,-4393
9383,12700,16198,-6111,1348,-5553,-6307
9393,15294,14974,-7254,-40,-5550,-9202
9403,20394,13612,-7506,-2568,-5898,-12558
9413,27764,9640,-6486,-6827,-6680,-15141
9423,-32768,4273,-8585,-11904,-6276,-17887
9433,-32768,-4619,-9334,-16792,-4728,-19313
9443,-32768,-13224,-11539,-22748,-1760,-21937
9453,-32768,-17165,-14536,-28278,1439,-22944
9463,-32768,-9937,-17864,-32767,5062,-23212
9474,-32768,591,-17393,-32767,6692,-18863
9484,29247,3700,-10521,-32767,8082,-12922
9494,29082,-8215,-2473,-31250,10620,-5851
9504,-32768,-32768,-18012,-9579,12865,-1276
9514,1051,32767,31628,-2859,10299,-13486
9524,15296,16196,7780,-15897,11116,-2046
9534,-32768,-24093,7693,-10014,9585,41
9544,21170,-4960,9277,-7058,9720,-2239
9554,26861,-4015,8541,-5411,10561,1115
9564,23040,-4843,5850,-3847,10021,2465
9574,22716,-3427,5082,-1853,10095,3989
9584,21964,-5365,4417,205,9769,5034
9594,20931,-6460,4631,2302,9625,5618
9604,19851,-6986,5093,3611,9452,5653
9614,19240,-6910,5023,4069,9064,5342
9624,18202,-6982,4451,4088,8038,4687
9634,16990,-6694,3592,4087,6631,3982
9644,15210,-7500,1060,3916,5746,4084
9654,13496,-5806,-267,2753,4252,2922
9664,11307,-5070,-710,1764,3292,2463
9675,10405,-5833,-84,1382,2714,2414
9685,10052,-5310,-1403,1120,2929,2596
9695,9466,-3923,-2010,875,2640,2413
9705,7834,-2974,-1936,423,2306,2198
9715,7380,-3463,-2328,0,2269,2319
9725,6911,-3879,-2720,-313,2132,2440
9735,5683,-2712,-2893,-448,1903,2638
9745,4827,-1056,-2582,-403,1756,2807
9755,4215,62,-2560,-404,1372,3105
9765,3731,50,-2323,-10,986,3358
9775,3538,-128,-2333,542,736,3528
9785,3892,1060,-2374,769,814,3767
9795,4295,2722,-2793,831,1051,3932
9805,4905,4237,-3690,221,1173,3893
9815,5680,4771,-4292,-965,1292,3743
9825,5714,5035,-3979,-2523,1561,2648
9835,4451,6732,-2745,-4423,1942,1433
9845,1916,7156,-759,-6328,1232,126
9855,599,6692,-1090,-7590,27,-526
9865,1812,6923,-1370,-8744,-414,-1466
9876,1120,6181,-1539,-7548,-874,-839
9886,243,4327,-2536,-5827,-1493,-700
9896,1140,749,-3523,-3286,-1100,550
9906,1290,-3901,-5671,1319,-611,1854
9916,-992,-5461,-5128,5471,406,1215
9926,-1056,-1376,-4072,5844,1132,74
9936,-3021,6301,-5543,3426,306,639
9946,-3887,10934,-401,2422,-1614,201
9956,-1120,5957,1713,100,-652,-497
9966,-540,1634,-944,-923,-546,-461
9976,-1027,-1207,-1193,251,-180,-43
9986,-1958,-2449,-620,1145,-120,216
9996,-2420,-2185,-1016,1400,-483,153
10006,-2020,-1177,-1674,1972,-764,-131
10016,-991,-289,-1124,2495,-843,-264
10026,226,254,-142,2007,-477,-288
10036,781,112,-11,1016,294,-425
10046,124,-1021,778,-64,493,-649
10056,-788,-1907,1249,-1488,201,-969
10066,-1211,-2271,117,-1741,70,-1657
10077,-861,-2659,-644,-1629,91,-2222
10087,-418,-3333,-701,-1595,-57,-2687
10097,-137,-4051,-1453,-1536,-133,-3047
10107,72,-4590,-1697,-1297,-121,-3297
10117,350,-4437,-1194,-1564,-183,-3680
10127,41,-3646,-1153,-2481,-443,-4083
10137,-427,-3848,-1335,-3040,-774,-4426
10147,-655,-4925,-1516,-3585,-1175,-4840
10157,-687,-5963,-2430,-3908,-1630,-5324
10167,-891,-6556,-2343,-3945,-1476,-5313
10177,-863,-6245,-1913,-3705,-1160,-5848
10187,-533,-5125,-446,-3545,-1048,-6187
10197,-110,-6266,-1614,-2167,-1348,-6068
10207,831,-7785,-2446,-1203,-1518,-5599
10217,2496,-8437,-878,-160,-1070,-5448
10227,3124,-8320,1459,-601,-186,-5512
10237,1164,-6889,1508,-1885,376,-4978
10247,106,-6285,1863,-2864,560,-4916
10257,386,-8228,1479,-3339,503,-4797
10267,572,-10620,1147,-3149,690,-4806
10278,683,-10291,1715,-2533,994,-4944
10288,263,-8229,2089,-1921,980,-5122
10298,-435,-6555,2567,-1623,687,-5261
10308,-602,-4974,2812,-1579,345,-5135
10318,-530,-4173,3489,-1552,40,-4886
10328,79,-4575,2873,-2025,-487,-4784
10338,1076,-5085,1778,-2104,-726,-4648
10348,1750,-5372,1094,-1970,-813,-4449
10358,2055,-5451,400,-1734,-820,-4278
10368,2185,-5173,293,-1418,-750,-4223
10378,2208,-4647,199,-1339,-740,-4327
10388,2501,-4304,91,-1248,-691,-4430
10398,2896,-4215,273,-1101,-580,-4417
10408,3318,-4129,800,-1079,-519,-4245
10418,3673,-4299,1310,-989,-600,-4165
10428,4260,-4652,1775,-874,-758,-4171
10438,4930,-4878,2094,-766,-925,-4114
10448,5501,-4722,2098,-705,-989,-4021
10458,5999,-4452,2255,-621,-971,-3871
10468,6222,-4169,2045,-745,-949,-3751
10479,6889,-3920,1487,-827,-796,-3716
10489,7933,-4069,945,-691,-416,-3633
10499,8584,-4524,582,-482,126,-3538
10509,8805,-4819,645,-145,650,-3524
10519,8639,-5014,1048,346,989,-3678
10529,8508,-4540,1203,825,1033,-3808
10539,8776,-3474,1212,1177,940,-3786
10549,8926,-2444,1054,1222,718,-3578
10559,8970,-1885,716,1118,438,-3242
10569,8541,-1964,434,1029,142,-2726
10579,8096,-2139,75,977,-60,-2332
10589,7571,-2616,391,1053,-76,-1879
10599,6885,-2990,-384,1108,-85,-1671
10609,6777,-2770,-239,1751,290,-1514
10619,5859,-2000,348,2158,651,-1084
10629,4606,-703,542,1980,802,-918
10639,3819,637,479,1467,862,-875
10649,3553,1265,487,968,909,-731
10659,3266,1112,695,617,763,-378
10669,2738,507,422,391,581,-170
10680,2187,165,73,305,413,-7
10690,1690,178,195,162,332,224
10700,1109,275,670,-103,315,530
10710,699,-114,370,-321,166,746
10720,710,-1376,-143,-251,162,878
10730,954,-2683,-248,-176,384,738
10740,1091,-3152,-553,21,791,451
10750,898,-2129,-508,308,1117,322
10760,916,-564,-301,332,1232,229
10770,1581,1000,-493,82,1486,2
10780,881,2186,-225,76,1937,814
10790,-601,1957,-105,-1103,1955,1145
10800,-834,1267,-725,-2164,1824,403
10810,-401,-112,-1210,-1593,1711,360
10820,-14,-1645,-1210,-453,1312,644
10830,543,-1979,-1079,147,1044,802
10840,1032,-902,-874,67,1198,967
10850,1137,731,-896,-154,1512,1122
10860,760,1654,-413,-293,1749,1327
10870,244,1307,605,-319,1782,1469
10881,73,198,1504,-290,1709,1394
10891,313,-943,2302,-18,1602,1163
10901,922,-1451,2334,365,1550,881
10911,1802,-928,1773,539,1640,640
10921,2443,333,1254,379,1738,500
10931,3144,1130,1082,-5,1751,462
10941,4156,959,1100,-717,1529,546
10951,4903,155,1367,-1386,1314,745
10961,4781,-784,1918,-1894,725,814
10971,4882,-871,1653,-1498,182,592
10981,5784,-1013,2149,233,-91,869
10991,5523,-1220,2869,1663,-461,1603
11001,4493,-240,3491,2399,-689,1937
11011,4418,843,3702,2217,-459,2109
11021,2637,4198,5234,-411,-422,1753
11031,2758,2708,4170,-748,-768,1560
11041,3169,-273,3671,-51,-532,2178
11051,3835,-1479,2651,1259,-203,2116
11061,3658,-278,2255,2710,201,1872
11071,3806,1507,2112,3508,384,1661
11082,3725,2232,2289,3531,268,1538
11092,3378,1734,2408,3301,-5,1365
11102,3425,792,2041,3019,-158,1223
11112,3663,457,1442,2788,-163,1144
11122,3864,-231,1661,2728,-200,1181
11132,4274,-1682,1331,2765,-241,1252
11142,4698,-3054,1339,2991,-110,1593
11152,5720,-4460,2011,2904,-13,1788
11162,8194,-6174,1330,2761,104,1903
11172,9686,-7840,772,3107,153,2306
11182,9455,-9036,1034,3492,274,2754
11192,9002,-9800,1760,3452,390,3096
11203,8076,-9757,1581,3315,264,3361
11213,7683,-9710,782,3648,229,3770
11223,7343,-8584,317,4174,355,4059
11233,6308,-6895,985,4204,342,4117
11243,5514,-6833,1546,4024,321,4110
11253,5278,-8635,978,3984,277,4037
11263,4751,-10523,1082,4018,153,3971
11273,4728,-12103,1285,3602,18,3904
11283,5215,-13555,1090,3164,-69,3989
11293,5241,-14041,1016,2943,-72,4073
11303,5083,-12664,359,2658,-11,4217
11313,4829,-11738,-629,2652,9,4520
11323,4533,-10848,-1072,2534,-49,4591
11334,3850,-9208,-1357,2307,-407,4478
11344,3116,-8628,-1563,2369,-1037,4423
11354,2643,-8295,-1522,2405,-1657,4188
11364,2325,-6475,-997,1965,-2199,3634
11374,2191,-5606,-709,1701,-2806,3094
11384,2243,-5935,-1543,2227,-3350,2875
11394,3460,-5700,-2363,3475,-3120,3113
11404,3324,-3444,-2191,3884,-2825,3191
11414,2345,-2317,-1085,4174,-2680,3544
11424,2452,-3288,-745,4251,-2532,3614
11434,3325,-3089,27,3989,-2026,3588
11444,3433,-1391,193,3802,-1545,3470
11455,3160,-896,1107,3652,-1065,3584
11465,2526,-2133,2249,2804,-996,3449
11475,1983,-3704,3142,2260,-1426,2943
11485,1936,-3697,2654,2160,-1828,2667
11495,1641,-4539,2020,2572,-2074,2837
11505,1859,-4824,1137,3038,-2263,2875
11515,852,-4979,2181,3780,-2398,3127
11525,-1215,-3978,844,3702,-2574,3221
11535,-532,-3076,662,3375,-2711,2866
11545,-1398,-4405,-614,3361,-2652,2561
11555,-2253,-4029,-2028,3177,-2532,2308
11565,-3417,-3546,-3849,2860,-2491,2053
11575,-5014,-3396,-5475,2137,-2572,1898
11586,-6189,-4133,-6132,1788,-2651,1907
11596,-5994,-6034,-5280,2707,-2662,2200
11606,-6751,-7130,-3477,2799,-3020,2817
11616,-6370,-9655,-2064,2950,-3332,2858
11626,-3963,-13535,-2432,3285,-3029,3043
11636,-2303,-15835,-3411,3430,-2102,3588
11646,-2368,-16184,-3873,2874,-891,4394
11656,-2854,-16953,-4155,2020,143,5252
11666,-3440,-19073,-3002,1374,710,5930
11676,-3851,-19939,-2908,785,234,6399
11686,-1785,-19519,-3644,-178,-227,6443
11696,254,-20002,-4832,-604,-343,6727
11707,1431,-21207,-4213,-1019,-649,7229
11717,3539,-23106,-5510,-1282,-611,7715
11727,5831,-24203,-6115,-1877,-473,8356
11737,7805,-25154,-5273,-2359,-349,9144
11747,9656,-24452,-4127,-2529,-150,9985
11757,11189,-23039,-2898,-2545,-123,10648
11767,12707,-21990,-2592,-2143,-256,11034
11777,14479,-19912,-3028,-1749,-360,11291
11787,14959,-17818,-2655,-1719,-1278,11449
11797,15451,-17020,-2300,-1213,-2446,11807
11807,16341,-15843,-1504,-539,-3758,11966
11817,17887,-13882,-574,440,-4796,11980
11827,19684,-10407,-517,1188,-5485,11721
11838,19917,-6927,-1561,1658,-6112,11396
11848,20444,-3638,-2929,1264,-6174,10979
11858,21575,71,-4086,320,-6548,9604
11868,23942,4834,-3127,165,-6883,8100
11878,25415,9544,-2823,743,-7704,7460
11888,25116,12657,1792,2410,-8492,7698
11898,22409,13396,5012,2898,-9056,6397
11908,23348,15519,4809,3847,-8741,3532
11918,22305,21537,5005,5376,-8197,969
11928,18230,27135,3284,7300,-8063,-986
11938,13129,28418,1250,8220,-8357,-3292
11948,13412,24009,-4164,8038,-8958,-6973
11959,20579,16969,-6656,6168,-10299,-9267
11969,24348,8424,-7120,2589,-11957,-10049
11979,24065,1184,-7270,-2140,-13043,-12002
11989,27130,-2725,-4697,-7100,-12959,-14522
11999,32217,-6681,624,-12789,-11411,-17363
12009,-32768,-13663,3228,-19885,-7723,-20333
12019,-32768,-23093,227,-28261,-3604,-22185
12029,-32768,-30970,-20028,-32767,244,-22407
12039,-32768,-27665,-32768,-32767,5696,-18025
12049,-32768,-26670,-32768,-32767,9224,-11243
12059,10892,-32719,-24914,-32448,9390,-4349
12069,13832,-14460,6559,-22479,12402,-5384
12079,-17641,6315,-3736,-21175,71,-6556
12089,-32768,-1437,-12042,-11442,11048,-6151
12099,-13991,5715,5070,-14237,275,-8648
12109,15938,-9200,-9164,-13922,1614,-6916
12119,5819,-11209,-9917,-13788,65,-5239
12129,8493,-2140,-10525,-12268,-1312,-4310
12139,7204,-2684,-9984,-11582,-3226,-3319
12149,7792,-2694,-9246,-10041,-4084,-2684
12159,6466,-2853,-6326,-7349,-4289,-1372
12169,32251,3530,-11010,1492,-930,-1344
12179,-24279,17,-6425,-5302,-2696,355
12189,6463,24,-9333,-1379,-2818,231
12199,6574,-10513,-2493,2512,-3366,4542
12209,2784,-3191,-3637,989,-2484,1948
12219,4484,-1856,-3842,2592,-1619,2090
12229,1692,-2191,-2041,3188,-2129,1362
12239,1094,-2893,-1113,4299,-2034,1161
12249,733,-2289,174,5155,-2085,1150
12259,-161,-2778,1396,5156,-2113,1141
12269,-580,-2354,2465,4606,-1506,1312
12279,-1050,-1335,3250,3918,-788,1570
12289,-877,-862,3011,3493,-16,1728
12299,39,-751,1677,3349,628,1607
12309,1762,-2224,98,3554,1318,1044
12319,1634,-1676,68,3633,1273,370
12329,1325,-2726,92,4194,1094,-108
12339,2429,-4443,-301,4450,921,-543
12349,3956,-5128,564,5777,786,-1155
12359,5191,-5402,1926,7028,812,-2035
12369,6436,-3894,3411,8244,1136,-3001
12379,7854,-2167,4460,9237,940,-4046
12389,9888,-1053,5456,8683,854,-4268
12399,11273,485,1971,6717,301,-4469
12409,12244,2826,-1565,6002,939,-4422
12419,10695,2637,-2420,6266,1816,-3048
12429,10780,814,-3011,7276,2892,-2568
12439,10191,-2697,-2013,10013,3307,-1131
12449,8984,-3534,-812,11223,2915,-1282
12459,8296,-2309,752,10947,2538,-1263
12469,7533,-1531,981,9673,1943,-895
12479,7087,-1554,-341,8712,1795,-344
12489,6808,-1272,-1499,8706,1947,-188
12499,6295,-861,-1922,9039,2071,-138
12509,6081,-1356,-1774,9808,1901,-32
12519,5967,-1047,125,9757,1648,40
12529,6313,158,438,9152,1116,108
12539,5970,-356,637,8853,520,549
12549,5656,-2024,359,8970,-211,652
12559,4806,-1983,-2602,10048,-781,500
12569,5581,1100,-4157,10490,-885,-78
12579,7023,3526,-3930,10434,-519,-197
12589,6459,4435,-2135,9797,-7,353
12599,5666,3565,-995,8885,70,582
12609,5526,1834,-1503,8257,125,785
12619,6147,526,-1962,8148,350,752
12629,5887,1124,-2339,8246,801,819
12639,5194,1793,-2053,8414,866,1091
12649,4727,1017,-2555,7716,711,1484
12659,4445,1110,-3330,6972,855,945
12669,4991,1260,-2437,6564,1306,868
12679,4031,931,-2082,6182,1579,717
12689,3104,18,-1836,5936,1590,666
12699,2889,-566,-2344,5792,1476,493
12709,3441,-825,-2694,5903,1534,375
12719,3563,-872,-2497,6186,1786,391
12729,3020,-541,-1850,6323,2020,435
12739,2356,50,-1288,6138,2140,467
12749,1866,292,-1045,5879,2156,413
12759,1291,370,-1043,5464,2090,445
12769,904,996,-906,4832,1975,384
12779,576,1798,-937,4047,1881,341
12789,473,1886,-1015,3156,1730,244
12799,461,1253,-1408,2677,1570,107
12809,680,972,-1468,2416,1469,-96
12819,1006,1537,-1555,2148,1381,-214
12829,1433,2033,-1826,1846,1266,-310
12839,1915,1970,-2199,1529,1184,-328
12849,2551,1805,-2502,1291,1152,-349
12859,3125,1952,-2799,1127,1225,-291
12869,3478,2018,-3031,987,1363,-188
12879,3734,1896,-3268,1103,1491,-136
12889,3949,1753,-3323,1284,1582,-46
12899,4334,1914,-3339,1539,1635,105
12909,4973,2518,-3018,1602,1627,283
12919,5178,2917,-2609,1449,1589,547
12929,5015,3184,-2190,1049,1400,892
12939,4879,3516,-2121,780,1135,1271
12949,4773,4194,-1454,142,947,1617
12959,4654,4466,-1162,-795,785,1947
12969,4570,3838,-1404,-1578,574,2294
12979,4457,3490,-1495,-2081,413,2473
12989,4383,3321,-1422,-2473,286,2603
12999,4159,2860,-1105,-2638,148,2588
13009,4246,2354,-750,-2677,-15,2487
13019,4126,1789,-344,-2472,-219,2444
13029,3745,1299,2,-2153,-386,2415
13039,3511,920,30,-1810,-442,2387
13049,3327,583,-87,-1506,-418,2401
13059,3112,421,-551,-1161,-472,2422
13069,3144,538,-147,-1233,-379,2417
13079,3172,748,-201,-1574,-293,2322
13089,3066,211,-112,-1761,-329,2185
13100,2994,-688,-499,-1559,-605,2088
13110,2732,-1224,-653,-735,-603,2061
13120,2515,-1803,-230,120,-462,2415
13130,1930,-1764,808,115,-268,2566
13140,1570,-645,1938,-816,-391,2193
13150,1258,1070,1657,-1788,-497,1665
13160,557,1698,988,-2286,-668,1594
13170,-59,453,477,-2940,-1063,1742
13180,-137,-1562,-854,-2755,-1432,1821
13190,36,-2855,-1510,-1510,-1505,1588
13200,318,-2508,-1455,-360,-1555,1304
13210,580,-932,-1413,-20,-1514,1333
13220,906,-571,-1895,674,-1595,1713
13230,1269,-1737,-1498,1426,-1595,1944
13240,1595,-2514,-1445,1984,-1382,1655
13250,2245,-2745,-1242,2843,-1152,1492
13260,2762,-2647,-862,3804,-835,1379
13270,3759,-2460,-34,4600,-488,1016
13280,5571,-2107,946,4947,33,624
13290,7421,-1524,1625,4753,651,356
13300,8396,-683,1459,4396,854,103
13310,8702,-81,1143,4121,716,194
13320,8921,-23,685,3668,480,454
13330,10068,-183,-216,2998,284,377
13340,11238,-357,-1480,2454,177,172
13351,11826,-381,-2686,1927,911,32
13361,11603,-293,-3022,1507,1846,120
13371,10584,-252,-2906,1277,2440,314
13381,9568,-563,-2467,1378,2688,482
13391,8728,-1135,-1649,1718,2528,674
13401,7714,-1416,-789,2173,1928,787
13411,6804,-1023,-329,2476,1160,851
13421,6067,79,-177,2515,433,1019
13431,5600,1261,-132,2298,-143,1183
13441,5504,1952,166,1702,-587,1385
13451,5201,1826,140,882,-855,1525
13461,4908,1226,-138,335,-1107,1594
13471,4744,462,-247,203,-1302,1534
13481,4722,-74,-493,470,-1492,1422
13491,4503,-321,-816,1089,-1562,1457
13501,4064,63,-641,1433,-1566,1541
13511,3851,628,-801,1539,-1550,1496
13521,3554,873,-574,1545,-1452,1559
13531,3008,767,-490,1398,-1353,1584
13541,2595,495,-595,1466,-1295,1600
13551,2235,232,-497,1665,-1250,1570
13561,2194,253,-386,1832,-1299,1521
13571,2736,371,-245,1934,-1384,1471
13581,3594,248,-305,1992,-1353,1472
13591,4237,-44,-482,2161,-1112,1524
13602,4587,-338,-464,2338,-738,1587
13612,4602,-410,-494,2463,-289,1692
13622,4297,-247,-671,2710,65,1768
13632,3866,167,-685,3013,327,1947
13642,3522,606,-754,3128,400,2053
13652,3536,829,-679,3099,486,2085
13662,3669,1038,-783,2973,570,2097
13672,3877,1069,-968,2912,662,2106
13682,4228,1024,-1100,2894,762,2016
13692,4620,1143,-1175,2852,951,1954
13702,4674,1356,-1053,2754,1193,1899
13712,4393,1796,-907,2477,1310,1897
13722,4117,2186,-725,2052,1256,1837
13732,4087,2176,-620,1457,1102,1740
13742,4054,1901,-641,865,959,1639
13752,3928,1509,-590,413,788,1509
13762,3796,1095,-587,44,574,1369
13772,3807,645,-490,-326,412,1189
13782,3832,74,-242,-593,272,889
13792,3946,-639,98,-694,122,496
13802,3858,-1273,415,-592,-30,267
13812,3704,-1640,742,-287,-188,101
13822,3586,-1715,1166,54,-348,21
13832,3609,-1776,1775,387,-382,9
13842,3602,-1842,1832,724,-426,3
13853,3668,-1363,2030,844,-369,-99
13863,3742,-312,2300,730,-232,-279
13873,4032,60,2339,839,-117,-339
13883,4097,-122,2958,756,25,-293
13893,4232,16,3262,430,222,-412
13903,4373,-21,3406,585,430,-498
13913,4231,-224,3870,778,549,-497
13923,4021,-72,3947,794,568,-639
13933,3851,165,3885,797,528,-810
13943,3560,276,3852,707,473,-955
13953,3270,290,3614,455,394,-1073
13963,2974,257,3156,189,307,-1183
13973,2839,168,2553,-15,268,-1319
13983,2784,6,2067,-112,266,-1410
13993,2729,-175,1743,-139,279,-1507
14003,2636,-289,1559,-143,266,-1606
14013,2577,-374,1334,-160,194,-1682
14023,2510,-359,1132,-194,97,-1776
14033,2495,-245,981,-238,-15,-1873
14043,2530,-104,914,-334,-113,-1967
14053,2636,62,780,-456,-210,-2056
14063,2763,98,715,-598,-272,-2133
14073,2873,36,666,-724,-332,-2190
14083,2987,-18,735,-888,-413,-2264
14094,3150,26,701,-1090,-501,-2377
14104,3402,97,685,-1273,-599,-2475
14114,3672,109,640,-1504,-713,-2586
14124,4027,129,661,-1797,-823,-2678
14134,4403,118,650,-2105,-926,-2758
14144,4760,-29,596,-2347,-1007,-2805
14154,5015,-265,471,-2547,-1091,-2833
14164,5133,-370,358,-2731,-1187,-2837
14174,5244,-436,406,-2942,-1249,-2813
14184,5371,-592,292,-3190,-1306,-2799
14194,5460,-797,328,-3355,-1300,-2737
14204,5420,-1041,300,-3504,-1278,-2654
14214,5418,-1273,164,-3503,-1250,-2587
14224,5436,-1380,60,-3365,-1190,-2482
14234,5457,-1410,162,-3093,-1093,-2357
14244,5461,-1471,395,-2883,-954,-2161
14254,5439,-1633,563,-2759,-798,-1954
14265,5423,-1749,626,-2737,-636,-1783
14275,5611,-1727,727,-2753,-454,-1718
14285,6098,-1548,832,-2743,-246,-1712
14295,6630,-1297,805,-2697,-47,-1614
14305,6815,-1132,646,-2585,145,-1374
14315,6587,-912,566,-2505,338,-1165
14325,6295,-554,670,-2460,434,-1110
14335,6251,-48,942,-2505,411,-1101
14345,6005,381,1134,-2584,346,-1044
14355,5774,486,1157,-2614,209,-930
14365,5445,473,1335,-2515,122,-814
14375,5402,398,1601,-2358,21,-860
14385,5538,384,1669,-2212,-43,-817
14395,5385,338,1551,-2079,-44,-726
14405,5014,280,1356,-2010,6,-608
14415,4588,201,1229,-2075,68,-509
14426,4302,145,980,-2191,111,-398
14436,3986,-100,792,-2226,160,-256
14446,3656,-434,527,-2209,214,-125
14456,3412,-799,272,-2037,270,10
14466,3203,-1083,89,-1719,320,135
14476,3048,-1240,-87,-1283,377,178
14486,2992,-1259,-196,-779,435,233
14496,2943,-1217,-197,-321,486,326
14506,2953,-1068,2,-28,495,389
14516,3144,-925,-43,171,493,421
14526,3385,-856,23,299,521,496
14536,3577,-711,102,279,574,612
14546,3612,-368,60,172,623,706
14556,3725,-81,22,78,630,807
14566,3884,78,63,-71,635,930
14576,4150,89,45,-234,617,1004
14586,4394,-16,-61,-334,632,1100
14597,4554,-225,-96,-290,623,1189
14607,4696,-352,-170,-193,585,1274
14617,4732,-235,-181,-104,579,1386
14627,4689,159,-230,-88,553,1463
14637,4579,482,-179,-168,517,1543
14647,4360,587,-187,-339,432,1675
14657,4073,337,-352,-374,309,1815
14667,3794,-92,-355,-247,198,1995
14677,3575,-197,-281,-194,106,2122
14687,3493,-140,-207,-93,36,2147
14697,3537,-275,106,-3,-20,2190
14707,3526,-400,112,6,-137,2202
14717,3683,-575,488,-3,-228,2314
14727,3742,-858,840,-330,-242,2416
14737,3674,-1105,908,-490,-169,2389
14747,3416,-1403,1160,-430,-83,2377
14757,3242,-1633,1374,-444,5,2311
14768,3176,-1803,1369,-462,116,2222
14778,3326,-2013,1316,-440,205,2065
14788,3533,-2305,1066,-351,388,1948
14798,3653,-2730,913,-116,596,1955
14808,3602,-2934,936,206,821,1979
14818,3471,-2992,1073,645,1044,1963
14828,3471,-2828,1382,900,1199,1891
14838,3659,-2388,1461,1089,1327,1806
14848,3787,-2199,1862,1404,1400,1855
14858,3694,-2288,2253,1605,1356,1882
14868,3512,-2208,2228,1744,1269,1852
14878,3432,-1991,2117,1973,1178,1791
14888,3432,-1722,2007,2054,1141,1708
14898,3502,-1470,1518,1887,1242,1619
14908,3406,-1467,1379,1824,1363,1512
14918,3226,-1624,1432,1703,1488,1394
14929,2904,-1647,1854,1664,1503,1312
14939,2731,-1622,1999,1860,1439,1190
14949,2629,-1391,2473,1874,1340,1085
14959,2476,-883,2652,1620,1224,1016
14969,2402,-729,2760,1307,1069,955
14979,2408,-957,2783,944,968,974
14989,2405,-1693,2628,1098,804,995
14999,2576,-2475,2567,1646,769,984
15009,2470,-2607,3087,2102,746,965
15019,2304,-2065,3455,2325,672,860
15029,2274,-1367,3708,2243,570,740
15039,2280,-1045,3865,1921,381,630
15049,2394,-1052,3831,1527,207,539
15059,2493,-1243,3651,1339,67,463
15069,2544,-1440,3765,1262,-68,390
15079,2539,-1426,3871,1277,-162,298
15089,2436,-1434,3993,1326,-269,199
15100,2393,-1753,4042,1325,-393,112
15110,2241,-2030,4154,1348,-492,2
15120,2004,-2014,4407,1381,-597,-105
15130,2002,-2100,4465,1386,-670,-172
15140,2132,-1944,4049,1355,-634,-187
15150,2382,-1392,3666,1392,-569,-188
15160,2376,-1039,3516,1557,-324,179
15170,2367,-1450,3609,1665,-48,612
15180,2297,-2201,3755,1895,269,983
15190,2093,-2749,3506,2202,512,1266
15200,2048,-2536,3574,2461,683,1415
15210,1955,-1840,3753,2506,673,1414
15220,1992,-1034,3907,2366,616,1354
15230,2334,-748,3906,2188,657,1340
15240,2327,-950,3968,2010,626,1261
15250,2230,-1158,4318,1916,510,1077
15260,2238,-941,4472,1763,398,904
15270,2440,-574,4350,1642,378,797
15280,2515,-404,4238,1550,435,844
15290,2683,-359,3677,1468,594,857
15301,2807,-405,3170,1430,713,830
15311,2865,-205,2781,1349,857,951
15321,2656,-376,2893,1491,1105,1012
15331,2391,-864,3397,1362,1297,1045
15341,2096,-1221,3673,1185,1374,921
15351,1923,-1152,3545,1146,1312,724
15361,1917,-502,3270,1139,1216,487
15371,1866,-21,3189,1055,997,322
15381,1764,83,2969,789,811,309
15391,1823,-311,2568,535,650,299
15401,2190,-471,1917,417,754,218
15411,2459,-418,1913,587,919,260
15421,2350,-328,2212,689,1050,346
15431,2229,-183,2683,692,1051,382
15441,1922,42,2744,729,1003,319
15451,1946,168,3002,728,922,265
15461,1751,285,2957,598,805,246
15471,1733,225,2992,469,664,189
15481,1739,92,2895,360,578,168
15491,1790,86,2922,237,549,124
15502,1841,150,2699,141,525,110
15512,1789,10,2711,84,501,165
15522,1788,-252,2685,68,502,227
15532,1876,-499,2742,142,541,263
15542,1834,-590,2875,225,563,290
15552,1750,-448,3159,238,530,337
15562,1545,-219,3328,225,467,326
15572,1466,-152,3425,91,348,339
15582,1454,-256,3298,3,242,350
15592,1489,-492,3229,-12,165,363
15602,1480,-471,3124,-23,117,341
15612,1452,-322,3144,-21,79,313
15622,1458,-313,2863,-26,64,329
15632,1439,-527,2903,25,53,377
15642,1412,-546,2987,33,35,374
15652,1340,-356,3223,-14,-18,338
15662,1269,-191,3393,-136,-130,317
15672,1350,-247,3239,-239,-212,324
15682,1407,-333,3184,-310,-270,325
15692,1471,-347,3082,-326,-291,308
15703,1601,-344,2832,-332,-276,224
15713,1939,-466,2820,-416,-272,-49
15723,2375,-319,2975,-719,-278,-292
15733,2012,186,3160,-987,-394,-315
15743,1352,733,2985,-1423,-649,-445
15753,1444,945,2689,-2106,-860,-783
15763,1647,497,2207,-2870,-1016,-1053
15773,2008,-27,1644,-3533,-1160,-1366
15783,2631,249,1406,-3894,-1127,-1825
15793,2807,1466,1734,-4101,-1039,-2341
15803,2959,2515,1989,-4790,-1132,-2273
15813,2571,2704,1674,-5634,-1263,-2202
15823,2916,2071,999,-6166,-1364,-2381
15833,3157,1333,685,-6384,-1456,-2483
15843,3230,1062,371,-6384,-1550,-2551
15853,3156,803,254,-6217,-1718,-2698
15863,3072,550,70,-5968,-1916,-2793
15873,3092,348,98,-5634,-2152,-2983
15883,3266,139,165,-5324,-2344,-3086
15893,3428,-204,595,-5023,-2555,-3274
15904,3724,-416,750,-4836,-2785,-3429
15914,3932,-624,862,-4779,-2986,-3532
15924,4197,-887,930,-5149,-3197,-3656
15934,4487,-1146,769,-5861,-3336,-3742
15944,4788,-1531,370,-6760,-3479,-3791
15954,4991,-2261,-442,-7685,-3511,-3667
15964,5010,-3369,-1530,-8211,-3445,-3550
15974,4901,-5326,-3478,-7564,-3403,-3480
15984,5185,-7709,-4186,-6249,-3264,-3259
15994,5187,-8421,-4079,-5212,-2986,-2900
16004,4760,-7614,-3966,-4109,-2729,-2661
16014,3982,-6372,-3471,-3332,-2618,-2266
16024,3285,-5384,-3828,-3059,-2821,-1817
16034,3128,-4974,-3127,-3094,-2983,-1350
16044,6321,-8783,-340,-1717,-1938,-1062
16054,8587,-13177,1637,-382,-1010,-473
16064,6538,-11003,1235,941,3,-315
16074,4225,-6535,1686,2679,416,-257
16084,2941,-2941,274,3125,279,-305
16094,1958,-1253,-862,3244,161,-99
16104,1071,-1524,-1692,3066,-229,-53
16115,1222,-2543,-2463,2836,-532,-240
16125,1548,-3122,-3176,2963,-535,-434
16135,1895,-3356,-3669,3758,-370,-567
16145,2277,-3506,-3596,5049,-290,-574
16155,2704,-3204,-3186,6158,-218,-347
16165,3234,-2622,-2328,7182,-136,37
16175,4074,-2418,-1360,7865,36,258
16185,5150,-2469,-533,8196,430,405
16195,5893,-2525,430,8119,752,569
16205,5907,-2279,609,7604,756,792
16215,5228,-1844,301,7258,687,1061
16225,4238,-1741,-20,7191,622,1232
16235,3904,-1918,-449,6776,533,1270
16245,4213,-2087,-595,5983,530,1326
16255,4522,-2093,-400,5078,664,1425
16265,4613,-2339,190,4439,591,1450
16275,4669,-2643,956,3930,426,1476
16285,4439,-2454,1120,3429,169,1484
16295,4067,-2079,910,3064,-52,1486
16305,3776,-2186,619,2806,-355,1499
16315,3793,-2566,509,2704,-494,1422
16325,3759,-2607,285,2678,-591,1335
16335,3650,-1982,330,2698,-577,1312
16345,3483,-1481,394,2754,-507,1325
16355,3250,-1294,630,2537,-442,1270
16366,4763,-589,-1506,1713,88,1094
16376,6545,-604,3016,2830,1788,1197
16386,2490,-2305,1328,2057,698,1065
16396,627,-2050,1693,898,49,113
16406,1110,-185,645,-416,-395,269
16416,1925,390,706,-1406,-631,519
16426,2855,-248,954,-2467,-769,98
16436,3511,-1882,-202,-2815,-891,-22
16446,3700,-4071,-1589,-2223,-945,860
16456,3533,-6357,-787,-621,-725,1318
16466,3154,-7120,-272,701,-440,518
16476,3015,-4715,234,1323,-334,-187
16486,2895,-1855,1060,1273,-341,-201
16496,2558,-606,1780,631,-522,73
16506,2395,-1059,1796,-364,-865,294
16516,2542,-2292,1158,-1133,-1153,429
16526,2959,-3355,602,-1422,-1305,589
16536,3208,-3966,74,-1382,-1242,686
16546,3285,-3973,-111,-1279,-1100,751
16556,3396,-3758,-134,-1216,-765,797
16566,3218,-3561,-52,-1315,-322,898
16576,3022,-3347,241,-1393,93,949
16586,2586,-3211,591,-1607,278,1041
16596,1976,-3247,1012,-2069,152,926
16606,2418,-2462,294,-2794,-203,498
16617,3302,-1255,-121,-3158,19,585
16627,3711,-996,-1165,-3162,923,866
16637,3459,-2649,-1773,-2102,2081,1025
16647,2762,-4838,-1778,-1213,2968,767
16657,2512,-5426,-1945,-256,3508,-70
16667,2614,-4346,-1768,893,4031,-749
16677,2471,-1731,-1168,1423,4151,-1173
16687,2947,-253,1879,2191,4790,-742
16697,2037,-462,2637,980,3880,-235
16707,1768,-3289,2802,1144,3145,-439
16717,793,-4671,3466,1369,2691,-539
16727,1029,-2374,2984,1039,2395,-954
16737,1533,-694,2760,421,1842,-1279
16747,1477,-1293,2025,-243,907,-1528
16757,1911,-3132,1618,38,357,-1555
16767,2761,-3107,1044,354,179,-1577
16777,2867,-2071,1394,1231,141,-1693
16787,2782,-820,1419,1923,-384,-1631
16797,3140,-164,1984,2310,-760,-1378
16807,2536,-692,2479,1871,-1307,-1368
16817,2265,-559,810,990,-1679,-1767
16827,3044,107,574,1140,-1934,-1716
16837,3356,764,1131,457,-2312,-1727
16847,3544,1217,1161,-972,-2540,-1694
16857,3512,1673,679,-2339,-2686,-1542
16868,3716,2120,-205,-3238,-2721,-1306
16878,4396,1406,-2283,-3195,-2190,-1054
16888,4714,-1055,-1616,-3620,-1736,-464
16898,5961,-3168,-2925,-3652,-826,-239
16908,6984,-6735,-1274,-2140,1073,189
16918,5446,-8508,1379,-720,2075,-419
16928,3404,-5994,3182,969,2090,-2301
16938,2133,-1443,3735,1950,1715,-2927
16948,1579,2392,4138,1882,812,-1858
16958,1674,3795,3516,458,-175,-1038
16968,3205,1904,1853,-1186,-937,-1005
16978,4811,-2414,327,-1963,-1228,-906
16988,5401,-5766,-712,-1513,-1044,-975
16998,5706,-5243,-174,-253,-439,-1392
17008,4671,-2430,1922,28,79,-1171
17018,3913,-985,2196,-487,-115,-910
17028,4186,-1583,1672,-928,-200,-518
17038,4208,-1775,1564,-1157,-80,-188
17048,3819,-1718,1716,-1066,-65,47
17058,3470,-1937,1874,-810,-76,305
17068,3389,-2163,1607,-384,-77,443
17078,3768,-2253,1042,356,7,690
17088,3845,-1902,746,771,159,919
17098,3756,-1834,1592,1089,362,1007
17108,3284,-2249,2150,1096,341,865
17119,3127,-2745,1883,1582,259,700
17129,3381,-2743,2360,2122,197,723
17139,3012,-2360,3238,1979,120,914
17149,2000,-2538,3392,1463,-287,998
17159,1830,-2588,3089,243,-704,814
17169,1853,-2750,2376,-760,-1136,697
17179,1948,-2999,1679,-1317,-1488,526
17189,2272,-3410,702,-991,-1803,617
17199,2669,-3873,-110,-140,-1894,898
17209,3149,-3952,-1118,1070,-1724,1179
17219,3793,-3388,-894,1987,-1332,1389
17229,3684,-2332,-842,1806,-1185,1554
17239,5146,-4252,-1826,2755,-885,2419
17249,6020,-6732,-919,2543,23,3232
17259,6609,-6626,-1521,3253,915,2760
17269,6090,-4379,571,3992,1598,2641
17279,3332,-1993,2893,3665,1018,2880
17289,1496,-619,2889,2170,-471,2988
17299,3128,-291,526,1015,-1099,2763
17309,4830,-2753,-687,1041,-1362,3047
17319,4616,-4539,-572,1663,-1287,3263
17329,4040,-3037,-637,2220,-1116,2963
17339,4156,-1373,349,2914,-1075,3086
17349,4174,-2304,346,2713,-1375,3508
17359,4964,-3450,-106,2913,-1308,3505
17370,4776,-3016,372,3350,-1113,3626
17380,4306,-2189,916,3500,-1124,3735
17390,4007,-2223,1122,3586,-1316,3880
17400,3885,-2575,989,3778,-1534,4017
17410,3878,-2813,989,3969,-1713,4124
17420,3905,-2952,910,4192,-1867,4173
17430,3918,-3044,808,4355,-1948,4219
17440,3805,-3022,905,4570,-2052,4286
17450,3496,-2896,1143,4682,-2198,4285
17460,3423,-2552,1264,4706,-2323,4193
17470,3178,-2478,1446,4863,-2392,4151
17480,2893,-2032,1481,4780,-2416,3997
17490,2624,-1688,1640,4679,-2438,3809
17500,2265,-1709,1663,4669,-2509,3580
17510,2171,-1955,1509,4870,-2535,3385
17520,2207,-1933,1318,4876,-2472,3036
17530,2025,-1816,321,4988,-2317,2696
17540,5052,3602,-2400,998,794,2148
17550,73,15245,7396,-11621,-550,-2250
17560,2723,5838,-259,-10143,-3150,-1683
17570,4350,-6659,-221,-3924,-427,1310
17580,1405,-7552,3654,-3638,908,1061
17590,1652,-571,3673,-2782,1755,-1911
17600,1244,3592,4148,-918,2192,-1871
17610,50,3743,5127,-1468,1869,-1325
17621,835,2443,3508,-3003,1324,-1842
17631,2355,397,2026,-3213,1264,-2281
17641,2838,-1087,1652,-2743,1457,-2364
17651,2754,-1184,1415,-2279,1650,-2592
17661,2930,-542,1359,-1901,1749,-2877
17671,3306,-217,1223,-1841,1801,-3049
17681,3769,-345,925,-1988,1818,-3132
17691,4164,-748,606,-2073,1832,-3181
17701,4349,-1197,334,-1997,1771,-3178
17711,4332,-1419,238,-1801,1638,-3246
17721,4182,-1214,439,-1724,1389,-3319
17731,4172,-891,768,-1861,1078,-3415
17741,4435,-799,1090,-2263,771,-3540
17751,5044,-878,1105,-2697,523,-3652
17761,5582,-1308,1106,-2731,403,-3690
17771,5691,-1911,1391,-2580,264,-3710
17781,5935,-1981,1502,-2412,126,-3815
17791,6036,-1782,1481,-2173,8,-3838
17801,6016,-1572,1534,-2064,-80,-3743
17811,5913,-1512,1524,-2063,-186,-3714
17821,5780,-1704,1480,-2144,-339,-3668
17831,5819,-1640,955,-2358,-425,-3647
17841,6223,-1528,108,-2270,-318,-3585
17851,6761,-2149,-27,-1807,36,-3266
17861,6528,-2962,105,-1723,342,-2995
17872,6115,-2833,100,-1675,572,-3017
17882,5701,-2135,365,-1546,732,-2912
17892,5263,-1609,659,-1745,727,-2732
17902,5269,-1257,489,-2252,692,-2745
17912,5537,-907,20,-2526,799,-2720
17922,5526,-749,-13,-2537,951,-2565
17932,5363,-599,-1,-2712,1052,-2436
17942,5372,-300,-171,-3015,1199,-2355
17952,5463,30,-289,-3227,1366,-2203
17962,5381,455,101,-3473,1496,-1976
17972,5060,265,-804,-3305,1435,-1671
17982,5187,-497,-946,-2898,1212,-1051
17992,5254,-740,-892,-3113,1214,-870
18002,5449,-570,-733,-3358,1489,-1008
18012,5287,-636,-817,-3464,1555,-916
18022,5056,-1310,-907,-3587,1405,-799
18032,4921,-2302,-955,-3518,1218,-713
18042,4654,-3035,-691,-3178,1074,-692
18052,4304,-3063,-241,-2994,1118,-597
18062,3962,-2521,315,-3226,1194,-657
18072,3822,-1795,304,-3970,1306,-777
18082,3745,-1647,67,-4674,1338,-601
18092,3483,-2507,-293,-5265,1250,-415
18102,3309,-3591,-648,-5465,1300,-386
18113,3041,-4085,-1173,-4751,1275,-457
18123,3655,-3691,-323,-3932,1267,-503
18133,2867,-2465,226,-3988,1369,-70
18143,2836,-1936,-601,-3556,1065,78
18153,3060,-2000,-37,-3276,956,503
18163,3293,-2037,-528,-3414,970,722
18173,3603,-1963,-1209,-3385,1283,1317
18183,3684,-2279,-947,-3467,1816,1826
18193,3926,-2967,-262,-3780,2517,2055
18203,4314,-3899,1431,-4190,3370,2222
18213,3706,-5197,2337,-4530,3680,2231
18223,1265,-4392,1564,-4916,2854,1206
18233,287,-1584,207,-4389,1579,218
18243,659,670,-23,-4345,428,516
18253,2212,331,1172,-4868,31,979
18263,3691,-2258,1181,-5585,332,1316
18273,3714,-4595,695,-5800,616,1493
18284,3287,-5220,113,-5527,678,1467
18294,3362,-4408,1104,-5652,1078,1353
18304,3165,-4684,255,-4920,1060,1559
18314,2798,-4791,153,-4425,863,1752
18324,2893,-4825,-177,-3998,511,1945
18334,3078,-4804,-68,-3630,494,1956
18344,3046,-4453,503,-3480,526,1974
18354,2879,-3788,979,-3704,356,1987
18364,2766,-3689,859,-3981,43,2111
18374,2785,-4033,566,-4052,-219,2232
18384,2815,-4242,273,-4152,-388,2254
18394,2843,-4270,-130,-4101,-556,2244
18404,2841,-4463,-481,-3866,-686,2323
18414,2836,-4625,-650,-3485,-743,2343
18424,2806,-4708,-743,-3132,-764,2290
18434,2723,-4682,-922,-2715,-736,2239
18445,2647,-4632,-996,-2275,-696,2217
18455,2527,-4406,-1087,-1921,-655,2166
18465,2357,-4210,-1127,-1612,-670,2140
18475,2184,-3987,-1227,-1412,-734,2122
18485,2037,-3887,-1316,-1223,-777,2090
18495,1832,-3899,-1367,-1095,-800,2040
18505,1608,-3984,-1333,-892,-807,1983
18515,1364,-4021,-1331,-678,-807,1935
18525,1222,-4013,-1388,-500,-812,1865
18535,1275,-3978,-1568,-335,-808,1807
18545,1358,-3950,-1552,-154,-768,1788
18555,1292,-3797,-1523,-53,-740,1764
18565,1186,-3694,-1557,32,-747,1725
18575,1105,-3672,-1624,95,-761,1700
18585,1050,-3596,-1573,189,-762,1683
18595,931,-3502,-1602,229,-784,1639
18605,899,-3458,-1498,248,-798,1616
18616,828,-3350,-1423,191,-825,1589
18626,728,-3285,-1431,202,-843,1560
18636,607,-3270,-1389,180,-883,1521
18646,553,-3230,-1484,158,-913,1472
18656,514,-3153,-1456,199,-919,1467
18666,433,-3104,-1505,236,-910,1483
18676,331,-3116,-1536,301,-891,1475
18686,224,-3013,-1546,353,-878,1433
18696,185,-2878,-1544,403,-849,1405
18706,129,-2844,-1460,454,-801,1402
18716,54,-2864,-1380,496,-757,1359
18726,-14,-2826,-1405,556,-704,1311
18736,-77,-2756,-1282,622,-643,1268
18746,-137,-2723,-1194,637,-608,1183
18756,-212,-2603,-1217,646,-562,1109
18766,-248,-2511,-1199,715,-499,1068
18776,-338,-2532,-1237,809,-463,1075
18787,-440,-2535,-1276,920,-421,1021
18797,-466,-2460,-1208,948,-408,961
18807,-466,-2419,-1114,917,-403,903
18817,-429,-2488,-1119,915,-383,840
18827,-474,-2658,-1020,991,-349,782
18837,-500,-2759,-981,1009,-311,717
18847,-454,-2705,-1030,1030,-294,647
18857,-363,-2609,-968,1077,-297,594
18867,-300,-2588,-909,1068,-285,539
18877,-255,-2612,-944,1091,-264,485
18887,-301,-2669,-991,1113,-232,443
18897,-409,-2735,-948,1154,-226,385
18907,-438,-2813,-868,1137,-241,307
18917,-412,-2816,-790,1067,-250,231
18927,-416,-2807,-784,1054,-244,176
18937,-521,-2862,-777,1085,-218,139
18948,-682,-2934,-642,1054,-232,95
18958,-817,-2938,-572,934,-254,44
18968,-897,-2873,-554,885,-285,7
18978,-959,-2955,-543,900,-313,5
18988,-1029,-3052,-520,868,-358,-14
18998,-995,-3078,-510,824,-416,-71
19008,-914,-3000,-478,804,-446,-133
19018,-820,-2897,-557,753,-439,-177
19028,-787,-2852,-582,771,-441,-222
19038,-754,-2924,-524,772,-466,-284
19048,-668,-2975,-672,766,-502,-353
19058,-511,-2966,-758,830,-552,-418
19068,-335,-2919,-778,926,-575,-473
19078,-187,-2807,-764,997,-567,-531
19088,-85,-2707,-712,981,-543,-605
19098,-59,-2608,-739,982,-516,-699
19108,-53,-2610,-829,994,-520,-802
19119,-32,-2588,-944,1003,-547,-892
19129,72,-2569,-950,973,-588,-1004
19139,214,-2520,-972,903,-647,-1138
19149,355,-2524,-946,853,-687,-1221
19159,391,-2615,-870,877,-734,-1279
19169,347,-2745,-719,884,-758,-1303
19179,250,-2789,-619,850,-811,-1330
19189,224,-2812,-560,875,-873,-1393
19199,322,-2752,-606,920,-929,-1468
19209,472,-2615,-670,920,-977,-1545
19219,693,-2509,-713,883,-1009,-1640
19229,870,-2460,-848,815,-1028,-1751
19239,948,-2546,-820,786,-1056,-1838
19249,841,-2725,-708,755,-1101,-1921
19259,694,-2844,-728,718,-1157,-1994
19269,664,-2931,-761,720,-1202,-2034
19279,753,-2922,-676,637,-1296,-2070
19289,1023,-2850,-693,500,-1393,-2108
19299,1316,-2825,-662,464,-1462,-2112
19309,1484,-2956,-579,468,-1494,-2076
19320,1540,-3239,-613,487,-1544,-2044
19330,1579,-3596,-578,599,-1584,-2087
19340,1628,-3897,-448,691,-1601,-2181
19350,1665,-3899,-405,667,-1589,-2267
19360,1638,-3767,-551,469,-1637,-2282
19370,1790,-3424,-432,214,-1524,-2348
19380,1993,-3380,-449,-51,-1498,-2355
19390,2036,-3950,-139,-178,-1562,-2249
19400,2057,-4592,141,-247,-1710,-2148
19410,2072,-4863,295,-96,-1780,-2127
19420,2061,-4772,520,97,-1831,-2142
19430,2020,-4553,827,197,-1856,-2109
19440,1979,-4157,936,-85,-1893,-2035
19450,2174,-3799,722,-481,-1831,-1949
19460,2432,-3986,589,-831,-1720,-1826
19470,2550,-4322,422,-1039,-1558,-1683
19480,2503,-4423,793,-1212,-1473,-1608
19490,2363,-4167,854,-1244,-1439,-1611
19500,2158,-4298,877,-683,-1546,-1356
19510,1966,-3952,1081,-581,-1638,-1126
19521,2151,-3108,1087,-531,-1601,-1206
19531,2299,-2564,1434,-471,-1587,-1324
19541,2337,-2656,1274,-550,-1670,-1457
19551,2575,-3310,1079,-423,-1744,-1581
19561,2958,-4413,1381,-144,-1693,-1690
19571,3458,-5634,1689,24,-1412,-1907
19581,3636,-6253,2688,51,-813,-2194
19591,3226,-5814,3112,94,-320,-2529
19601,2558,-4690,3093,168,-80,-2843
19611,1856,-3719,2830,-219,-230,-3059
19621,1562,-2530,1673,-1496,-837,-3188
19631,2297,-60,-252,-3303,-453,-2707
19641,2947,75,-2111,-460,384,-2234
19651,4568,-2868,2709,1868,544,-1506
19661,4717,-4537,2175,-1226,619,-597
19671,5397,-4538,903,-1479,1109,-522
19681,5478,-6331,1671,-24,1877,-42
19691,3726,-7042,2003,-38,1997,203
19701,2819,-4822,1936,-529,1452,-584
19711,3546,-2188,1930,-246,1382,-1187
19722,4087,-1954,3420,127,1429,-881
19732,3716,-2926,2983,-679,897,-708
19742,4134,-2934,2275,-1251,330,-892
19752,5491,-2807,1755,-1329,423,-895
19762,6467,-3434,2535,-954,1419,-708
19772,5618,-3692,3940,-871,2205,-660
19782,4457,-3532,4618,-856,2353,-606
19792,3602,-3669,4493,-1013,2156,-337
19802,3596,-4274,2970,-614,2144,-258
19812,3857,-5488,2574,270,2374,74
19822,3240,-6229,3046,1049,2432,310
19832,2568,-5940,4122,2041,2241,389
19842,2682,-5248,5383,2752,1983,696
19852,3538,-4835,6341,2715,1812,1170
19862,4695,-4637,7416,2036,1923,1481
19872,5418,-4193,7521,1042,2096,1516
19882,5949,-3545,6913,130,2343,1669
19892,6391,-3758,5605,-304,2372,2241
19902,6824,-4763,4287,-282,2340,3039
19912,7441,-5447,2564,337,2476,3582
19923,7848,-7056,2485,1732,2636,4397
19933,8139,-6793,1291,2135,2889,4824
19943,7978,-6517,940,2357,3288,5107
19953,7895,-3124,-135,1068,3851,4146
19963,6987,-807,81,1176,4579,4200
19973,4362,-1445,-611,968,4337,5405
19983,3251,-2484,-1545,355,4474,5465
19993,2704,-2632,-2138,-463,5038,5307
20003,1614,-2180,-3054,-1188,5678,5606
20013,177,-2140,-3700,-1788,6385,5981
20023,-1355,-2609,-4437,-2335,6942,6096
20033,-2450,-2518,-5325,-2609,7365,6109
20043,-3364,-1904,-5911,-3407,7700,5843
20053,-3133,-206,-6742,-4642,8125,5312
20063,-2442,388,-7290,-4945,8352,4979
20073,-2403,892,-8542,-4595,8523,4809
20083,-2393,2861,-9393,-4624,9149,4726
20093,-2041,5032,-9854,-5661,9917,3952
20103,684,6123,-10405,-6955,10632,2769
20113,5189,8508,-12857,-8213,11503,1824
20123,9810,11456,-14427,-8181,12257,1139
20134,12466,12743,-14568,-7827,12627,-363
20144,16495,15928,-14563,-7143,12134,-2939
20154,23230,24133,-16367,-5843,11256,-7062
20164,30705,24463,-16414,-4516,8191,-11390
20174,-32768,21205,-13736,-2480,4048,-15464
20184,-32768,20224,-3736,712,425,-19405
20194,-32768,11828,7243,4400,-2981,-22274
20204,-32768,3087,21181,11078,-6542,-23500
20214,-32768,-1869,32552,18872,-10831,-21171
20224,-32768,-14143,32767,25927,-15814,-16514
20234,-32768,-32768,32628,-32768,-20319,-11914
20244,-32768,-32768,20508,-32768,-22235,-7961
20254,-32768,-29907,2906,-32768,-18215,-1745
20264,27394,-20077,-25591,-32768,-25497,5241
20274,-32768,-5350,-32768,22715,-12146,493
20284,23545,-2586,-24442,10690,-14718,9763
20294,18154,-10392,-32768,10652,-16677,8582
20304,16641,-16931,-32768,13702,-18186,14838
20314,23825,-25545,-32768,14325,-17119,4142
20324,30139,-2430,-32768,20614,-9035,906
20334,-32768,23167,-24361,19424,-466,2612
20344,29503,24636,-16715,17149,4468,7547
20354,18940,23453,-4835,12953,6019,7882
20364,15476,23510,299,6971,2857,7116
20374,15313,17204,893,1155,458,7668
20384,15526,8767,-3052,-2302,-757,7423
20394,16733,4520,-3318,-2796,-423,6542
20404,16647,5354,-965,-2390,773,5410
20414,15202,7393,1799,-2146,1584,4547
20424,12914,8600,3289,-2390,1700,3970
20434,10559,8930,4508,-3171,1485,3372
20444,8378,9760,5515,-4242,738,2573
20454,7644,12531,8215,-5211,-83,1729
20464,6466,10545,12329,-5273,-1728,1647
20475,4368,5874,8357,-6330,-2745,1386
20485,4300,5158,5073,-5860,-1845,109
20495,4596,4580,4808,-4789,-703,92
20505,4176,3549,5421,-5018,-282,548
20515,3800,1678,4449,-5392,-23,-3
20525,3715,-261,3806,-4810,658,-578
20535,3603,-1419,3831,-3737,1231,-970
20545,3732,-1408,3760,-2618,1546,-1487
20555,3348,-1336,3933,-1640,1902,-1739
20565,1647,-1365,4336,-1073,2028,-1952
20575,843,-1138,3957,-1345,1800,-2523
20585,1174,-1028,2671,-1669,1563,-3113
20595,2424,-1615,1649,-1727,1384,-3497
20605,3533,-2812,333,-1291,1527,-3666
20615,4053,-4016,-698,-533,1981,-3663
20625,3922,-4912,-537,26,2600,-3747
20635,3308,-5371,375,158,3061,-4007
20645,2432,-5365,999,150,3031,-4268
20655,2596,-4929,1044,41,2704,-4556
20665,3697,-4320,991,-350,2211,-4729
20675,4983,-4651,522,-632,2075,-4745
20685,5263,-5587,37,-642,1842,-4630
20695,5103,-6157,-286,-491,1644,-4580
20705,4868,-5996,-398,-436,1444,-4536
20715,4600,-5393,-582,-574,1275,-4531
20725,4482,-4630,-989,-808,1079,-4516
20735,4558,-4053,-1556,-892,994,-4413
20745,4648,-3797,-1746,-962,933,-4291
20755,4688,-3364,-1893,-1271,864,-4300
20765,4949,-2963,-2263,-1204,896,-4328
20775,4982,-2975,-1907,-870,1005,-4117
20785,4641,-2961,-1474,-816,984,-3999
20795,4608,-2430,-1324,-945,921,-4102
20806,4836,-1699,-1202,-1080,956,-4156
20816,5073,-1433,-873,-1363,966,-4079
20826,5378,-1331,-890,-1822,844,-4029
20836,5810,-1319,-846,-2180,850,-3941
20846,5924,-1503,-902,-2410,798,-3717
20856,5844,-1723,-819,-2606,762,-3432
20866,5689,-1850,-738,-2799,759,-3258
20876,5543,-1721,-697,-2977,792,-3118
20886,5345,-1389,-619,-3164,809,-2939
20896,5152,-1019,-576,-3427,813,-2724
20906,5005,-676,-593,-3840,760,-2521
20916,4844,-342,-651,-4183,706,-2384
20926,4673,-22,-563,-4499,654,-2207
20936,4420,279,-471,-4855,546,-2097
20946,4147,646,-446,-5250,376,-2042
20956,3975,871,-463,-5555,175,-1944
20966,3751,904,-539,-5763,-43,-1806
20976,3563,729,-585,-5863,-231,-1686
20986,3551,683,-621,-5989,-370,-1565
20996,3763,707,-794,-6044,-481,-1504
21006,4043,539,-981,-5955,-555,-1378
21016,4108,102,-1002,-5747,-556,-1182
21026,3999,-342,-945,-5498,-542,-1026
21036,3990,-677,-947,-5209,-505,-954
21046,4046,-900,-814,-4932,-406,-918
21056,4048,-1100,-710,-4788,-290,-823
21066,3873,-1283,-726,-4661,-161,-743
21076,3773,-1431,-751,-4441,-17,-700
21086,3755,-1658,-699,-4183,144,-634
21096,3745,-1922,-657,-3869,312,-567
21106,3675,-2230,-682,-3421,462,-574
21116,3796,-2402,-426,-2910,603,-632
21127,3745,-2499,-270,-2393,749,-667
21137,3594,-2478,-20,-1868,852,-770
21147,3393,-2253,183,-1481,893,-904
21157,3264,-1988,375,-1145,868,-1044
21167,3312,-1941,581,-797,815,-1114
21177,3308,-1931,622,-447,764,-1139
21187,3355,-1757,843,-228,720,-1204
21197,3433,-1599,731,-271,632,-1241
21207,3568,-1522,863,-256,581,-1274
21217,3613,-1557,910,-390,518,-1260
21227,3662,-1647,913,-502,456,-1292
21237,3724,-1662,920,-599,405,-1317
21247,3865,-1579,901,-718,369,-1326
21257,4028,-1731,937,-606,328,-1289
21267,3965,-1975,1038,-614,274,-1258
21277,3809,-2054,943,-675,198,-1248
21287,3564,-2043,925,-694,143,-1188
21297,3412,-2045,848,-640,74,-1151
21307,3437,-2046,790,-604,4,-1118
21317,3560,-1979,799,-604,-43,-1108
21328,3691,-1977,877,-529,-127,-1104
21338,3754,-2092,942,-424,-236,-1112
21348,3802,-2146,866,-275,-363,-1149
21358,3858,-2018,660,-24,-451,-1171
21368,3981,-1880,387,303,-495,-1144
21378,4143,-1916,279,626,-500,-1061
21388,4177,-2130,155,872,-494,-978
21398,4184,-2227,43,1149,-450,-939
21408,4192,-2109,-53,1437,-420,-875
21418,4247,-1845,-39,1662,-418,-804
21428,4326,-1628,-67,1914,-452,-718
21438,4378,-1581,-105,2216,-502,-595
21448,4426,-1578,-86,2541,-562,-458
21458,4499,-1310,-185,2702,-598,-385
21468,4720,-764,-281,2798,-594,-320
21478,4916,-556,-274,2882,-609,-143
21488,4931,-587,-344,2889,-626,38
21498,4954,-488,-433,2933,-654,171
21508,5012,-397,-586,3063,-693,298
21518,5056,-501,-802,3331,-708,469
21529,5077,-597,-926,3601,-720,571
21539,5150,-509,-1075,3875,-720,637
21549,4992,-107,-1124,4061,-639,822
21559,4751,196,-1167,4113,-611,967
21569,4613,284,-1141,4170,-630,1153
21579,4441,344,-1187,4215,-641,1318
21589,4384,477,-1174,4261,-652,1427
21599,4405,654,-1056,4229,-655,1490
21609,4513,877,-965,4132,-665,1501
21619,4466,1104,-910,3972,-644,1550
21629,4572,1184,-777,3767,-690,1438
21639,4821,1139,-733,3492,-693,1359
21649,4787,834,-795,3359,-583,1366
21659,4552,302,-940,3206,-484,1355
21669,4498,-354,-1188,3332,-355,1235
21679,4521,-767,-1271,3468,-175,1145
21689,4463,-841,-1503,3595,19,1020
21699,4511,-743,-1587,3690,114,1007
21709,4444,-590,-1512,3577,155,1035
21719,4413,-490,-1702,3383,217,1104
21730,4276,-457,-1514,3076,427,1333
21740,4027,-574,-1552,2687,507,1526
21750,3984,-824,-1426,2324,573,1590
21760,3824,-996,-1557,2022,621,1579
21770,3677,-1001,-1790,1915,687,1416
21780,3748,-974,-1670,1717,816,1242
21790,3859,-1098,-1441,1486,977,1180
21800,3702,-1376,-1377,1285,1128,1211
21810,3511,-1656,-890,973,1139,1238
21820,3242,-1615,-505,472,951,1177
21830,3278,-1348,-224,104,826,884
21840,3461,-1243,-422,-77,753,659
21850,3605,-1347,-666,-85,582,565
21860,3816,-1583,-1088,221,444,516
21870,3745,-1664,-1131,470,465,508
21880,3641,-1416,-1291,775,448,423
21890,3769,-1142,-1171,1034,418,353
21900,4011,-964,-1031,1044,398,275
21910,4201,-810,-903,859,447,222
21920,4249,-661,-784,592,479,247
21931,4284,-663,-876,424,463,306
21941,4370,-789,-766,436,448,352
21951,4510,-938,-697,370,491,312
21961,4729,-1010,-617,385,595,213
21971,4885,-950,-480,421,713,136
21981,4886,-767,-351,369,788,112
21991,4742,-504,-201,307,845,133
22001,4592,-341,16,264,879,210
22011,4411,-344,385,186,801,292
22021,4319,-452,769,121,680,371
22031,4216,-676,895,176,610,388
22041,4260,-770,1236,102,604,330
22051,4271,-525,1458,-185,563,296
22061,4363,-16,1423,-499,513,247
22071,4469,406,1385,-820,473,188
22081,4678,520,1459,-1197,457,145
22091,4771,186,1730,-1516,492,93
22101,4653,-220,1646,-1688,411,-14
22111,4387,-220,1443,-1613,313,-187
22121,4258,227,1101,-1310,230,-393
22132,4251,685,861,-849,258,-488
22142,4202,822,949,-532,315,-500
22152,4084,717,945,-416,332,-502
22162,3957,632,899,-290,399,-585
22172,3825,643,925,-94,488,-701
22182,3708,645,1182,133,554,-764
22192,3658,690,1283,269,547,-789
22202,3731,613,1403,387,533,-788
22212,3820,504,1530,410,513,-797
22222,3818,387,1529,450,501,-809
22232,3734,221,1529,524,486,-827
22242,3691,103,1450,613,456,-847
22252,3656,103,1393,731,408,-867
22262,3616,102,1364,830,363,-883
22272,3575,-8,1272,878,320,-909
22282,3581,-122,1219,870,300,-948
22292,3499,-88,1197,821,273,-975
22302,3355,29,1130,740,243,-973
22312,3278,73,1137,589,213,-973
22322,3264,-45,1176,361,189,-990
22333,3236,-203,1139,124,168,-1006
22343,3201,-291,1028,-56,141,-1026
22353,3186,-358,962,-178,116,-1044
22363,3177,-493,942,-273,96,-1053
22373,3174,-542,909,-362,56,-1054
22383,3210,-510,778,-401,7,-1072
22393,3310,-557,792,-413,-25,-1083
22403,3384,-600,740,-451,-57,-1090
22413,3465,-615,673,-493,-94,-1093
22423,3534,-593,690,-511,-108,-1092
22433,3569,-625,741,-531,-140,-1101
22443,3595,-650,749,-585,-176,-1099
22453,3638,-681,803,-622,-214,-1075
22463,3656,-721,825,-670,-241,-1048
22473,3677,-823,766,-728,-245,-1042
22483,3681,-868,722,-808,-234,-1022
22493,3624,-873,778,-836,-215,-1006
22503,3590,-843,842,-862,-218,-990
22513,3553,-826,846,-877,-229,-962
22523,3534,-852,868,-875,-252,-922
22534,3514,-910,925,-885,-280,-870
22544,3495,-935,975,-866,-302,-822
22554,3485,-990,1011,-804,-339,-781
22564,3536,-997,1048,-767,-355,-756
22574,3600,-980,1037,-693,-363,-734
22584,3700,-961,1021,-604,-367,-716
22594,3854,-999,1051,-527,-364,-711
22604,4029,-1036,1078,-469,-344,-720
22614,4304,-1035,1111,-412,-324,-739
22624,4612,-993,1163,-357,-283,-737
22634,4912,-1019,1201,-254,-272,-685
22644,5081,-1093,1126,-109,-245,-610
22654,5224,-1122,1050,70,-195,-484
22664,5254,-1096,1073,218,-120,-370
22674,5305,-986,1182,305,-59,-305
22684,5408,-836,1245,325,-9,-232
22694,5439,-651,1262,348,-3,-127
22704,5355,-548,1216,407,-9,3
22714,5274,-477,1241,484,-33,99
22724,5256,-364,1232,542,-70,170
22735,5217,-230,1280,646,-108,250
22745,5027,-111,1344,712,-167,316
22755,4746,19,1272,735,-237,375
22765,4442,132,1176,790,-314,456
22775,4230,203,1135,785,-383,515
22785,4082,200,1073,739,-436,561
22795,3869,-16,969,831,-507,638
22805,3615,-285,894,969,-568,733
22815,3465,-405,793,1234,-583,796
22825,3453,-489,770,1528,-594,858
22835,3612,-614,729,1822,-596,919
22845,4020,-708,701,2090,-558,997
22855,4489,-778,626,2354,-492,1097
22865,4827,-905,624,2618,-443,1256
22875,5011,-1006,463,2799,-419,1446
22885,5149,-1029,262,2955,-364,1598
22895,5163,-971,102,3176,-309,1767
22905,5098,-868,-46,3376,-270,1878
22915,5110,-712,-280,3658,-216,1977
22925,5026,-539,-243,3867,-143,2134
22936,4934,-277,-361,3886,-81,2189
22946,5043,-49,-465,3915,31,2204
22956,5107,166,-269,3817,141,2312
22966,5049,225,-141,3625,171,2383
22976,5003,75,61,3445,183,2433
22986,4725,-105,164,3162,141,2492
22996,4454,-199,181,2902,124,2448
23006,4302,-306,214,2614,105,2358
23016,4174,-485,208,2357,94,2295
23026,4118,-868,144,2254,81,2237
23036,4093,-1384,32,2215,98,2225
23046,4070,-1731,-208,2296,158,2140
23056,4089,-1988,-210,2441,264,2081
23066,4012,-2017,-289,2503,337,2032
23076,3954,-2134,-286,2646,373,1984
23086,3866,-2409,-199,2742,415,1945
23096,3790,-2425,-218,2681,465,1905
23106,3788,-2162,-276,2674,577,1875
23116,3648,-1811,-119,2524,685,1915
23126,3439,-1752,-53,2361,738,1975
23137,3342,-1885,25,2126,777,2033
23147,3356,-2031,70,1973,826,2039
23157,3332,-2199,295,1891,866,2044
23167,3214,-2259,344,1871,872,2046
23177,3120,-2276,470,1893,850,2058
23187,3065,-2174,426,1927,885,2051
23197,3071,-2024,633,1924,950,2106
23207,2940,-1943,565,1838,977,2142
23217,2865,-2235,589,1703,1026,2182
23227,2844,-2620,641,1676,1082,2203
23237,2705,-2771,816,1723,1091,2148
23247,2700,-2585,962,1838,1107,2047
23257,2604,-2350,1260,1887,1074,1978
23267,2566,-2056,1375,1726,952,1853
23277,2591,-2032,1446,1649,832,1765
23287,2620,-2341,1509,1643,742,1671
23297,2642,-2587,1528,1710,679,1473
23307,2577,-2513,1677,1707,592,1219
23317,2674,-2396,1765,1673,501,955
23327,3893,-2393,397,1719,408,498
23338,2974,-2221,1613,1003,556,560
23348,3021,-1552,2166,536,746,-248
23358,3046,-1491,2801,368,671,-570
23368,2826,-1503,3280,562,517,-936
23378,2513,-1430,3275,463,46,-1491
23388,2768,-1499,3174,60,-174,-1579
23398,2716,-1856,2975,-559,-449,-2031
23408,2401,-1570,3219,-1396,-624,-2454
23418,2796,-1051,2997,-1904,-894,-2882
23428,3137,-918,3360,-2396,-1044,-2892
23438,3381,-854,3145,-2788,-1010,-2897
23448,3585,-203,2628,-2980,-790,-2620
23458,3504,616,2353,-2982,-559,-2157
23468,3525,839,2171,-3169,-392,-1756
23478,3430,322,2007,-3408,-391,-1498
23488,3472,71,1429,-3332,-400,-1401
23498,3777,27,1458,-3080,-337,-1222
23508,3667,260,1352,-3034,-313,-971
23518,3548,320,1388,-2861,-421,-761
23528,3612,-30,1355,-2599,-563,-630
23539,3702,-362,1170,-2275,-695,-527
23549,3788,-508,1010,-1866,-829,-477
23559,3781,-591,662,-1472,-896,-433
23569,3843,-691,469,-1119,-925,-490
23579,3999,-898,248,-741,-919,-567
23589,4142,-1178,86,-232,-877,-687
23599,4265,-1265,157,310,-769,-810
23609,4104,-997,276,707,-703,-851
23619,3857,-408,381,933,-711,-872
23629,3664,15,455,1029,-780,-904
23639,3541,202,497,878,-931,-971
23649,3447,176,290,623,-1077,-1016
23659,3437,98,35,350,-1193,-1000
23669,3403,72,-86,-18,-1303,-1022
23679,3464,20,-209,-369,-1356,-1106
23689,3559,-230,-192,-605,-1365,-1168
23699,3586,-480,-74,-723,-1355,-1182
23709,3554,-511,94,-751,-1398,-1246
23719,3481,-450,202,-763,-1457,-1282
23729,3431,-404,211,-850,-1559,-1341
23740,3431,-361,81,-1088,-1656,-1377
23750,3527,-320,-193,-1389,-1731,-1394
23760,3694,-470,-490,-1619,-1788,-1428
23770,3885,-816,-628,-1750,-1804,-1410
23780,4087,-1175,-572,-1796,-1793,-1413
23790,4167,-1366,-535,-1797,-1740,-1305
23800,4212,-1466,-529,-1827,-1758,-1218
23810,4334,-1558,-498,-1948,-1719,-1186
23820,4371,-1551,-670,-2113,-1664,-1101
23830,4248,-1597,-860,-2198,-1619,-958
23840,4130,-1674,-1018,-2312,-1612,-825
23850,4085,-1724,-1213,-2435,-1601,-709
23860,4064,-1829,-1367,-2438,-1596,-611
23870,4082,-1853,-1409,-2451,-1544,-451
23880,3978,-1851,-1422,-2514,-1513,-281
23890,3903,-2104,-1508,-2509,-1500,-188
23900,3790,-2404,-1493,-2443,-1471,-110
23910,3716,-2294,-1392,-2435,-1449,-20
23920,3657,-2135,-1347,-2460,-1477,87
23930,3633,-2299,-1511,-2476,-1514,187
23941,3588,-2520,-1704,-2473,-1518,289
23951,3528,-2547,-1874,-2519,-1514,373
23961,3458,-2544,-2131,-2498,-1530,499
23971,3461,-2578,-2099,-2492,-1522,660
23981,3412,-2553,-2339,-2474,-1542,821
23991,3390,-2701,-2418,-2423,-1550,1003
24001,3342,-2636,-2570,-2451,-1559,1214
24011,3178,-2483,-2808,-2473,-1551,1421
24021,2996,-2558,-2963,-2510,-1620,1582
24031,2851,-3047,-3067,-2393,-1663,1699
24041,2749,-3272,-3200,-2192,-1720,1731
24051,3664,-4594,-2038,-1408,-1518,1723
24061,5237,-5859,811,519,-406,848
24071,8144,-2518,5589,1249,806,207
24081,7471,2227,5159,5,1258,943
24091,4353,2154,1802,-598,1080,1638
24101,1671,-644,-920,-1128,505,1772
24111,1311,-2414,-3022,-1300,-103,1204
24121,2443,-2064,-4073,-1030,-615,689
24131,3676,-1254,-4135,-659,-786,607
24141,4199,-1568,-3953,-380,-557,568
24152,4007,-2823,-3738,72,-341,587
24162,3622,-3824,-3112,800,-276,465
24172,3933,-4176,-1999,1781,-348,77
24182,4221,-3637,-1926,2808,-513,-137
24192,4010,-2609,-2309,3459,-595,-103
24202,3448,-2077,-2905,3871,-655,-196
24212,3213,-2387,-2978,4228,-653,-306
24222,3180,-2753,-2962,4465,-693,-307
24232,3351,-2678,-2779,4711,-680,-313
24242,3539,-2533,-2591,5091,-674,-285
24252,3370,-2645,-2733,5268,-642,-173
24262,3310,-2564,-2237,5102,-653,79
24272,2968,-2964,-2901,4818,-632,123
24282,3154,-3467,-2739,4619,-689,311
24292,3423,-3532,-2830,4290,-689,433
24302,3889,-3253,-2974,4098,-706,538
24312,4094,-3255,-3121,3963,-547,724
24322,4083,-3720,-3462,3874,-423,895
24332,4104,-4497,-3905,4186,-286,1052
24342,4460,-5156,-3906,4665,-128,1173
24352,4983,-5194,-3802,4955,110,1352
24362,5444,-4746,-3464,5010,361,1595
24372,5513,-4501,-3118,4828,606,1953
24382,5332,-4790,-2761,4534,751,2269
24392,5130,-5110,-2556,4153,685,2595
24403,4879,-5197,-2824,3961,599,2914
24413,4894,-5086,-2910,3767,504,3216
24423,4934,-4862,-3320,3644,459,3457
24433,4951,-4637,-3574,3690,431,3712
24443,4780,-4448,-3578,3785,477,3976
24453,4448,-4365,-3373,3891,517,4176
24463,4192,-4400,-2870,3926,495,4322
24473,3982,-4462,-2216,3907,380,4451
24483,3761,-4378,-1954,3970,222,4491
24493,3684,-4355,-1925,4266,94,4428
24503,3650,-4479,-1942,4607,41,4419
24513,3667,-4362,-1887,4925,84,4386
24523,3642,-3624,-1810,5076,220,4362
24533,3328,-2713,-1782,5155,336,4378
24543,2881,-2069,-1428,4990,420,4398
24553,2380,-1627,-983,4545,419,4430
24563,1989,-1383,-678,3978,348,4394
24573,1629,-1376,-379,3416,227,4311
24583,1391,-1540,-245,2949,36,4153
24593,1323,-1750,-260,2615,-138,3989
24603,1363,-1706,-242,2333,-283,3802
24613,1378,-1311,-427,2056,-304,3607
24623,1120,-877,-599,1973,-210,3434
24633,817,-858,-436,1913,-96,3199
24643,672,-1092,-96,1607,-72,2962
24654,478,-1112,237,1289,-160,2736
24664,374,-691,857,915,-344,2465
24674,436,81,1286,350,-568,2151
24684,457,772,1524,-280,-717,1861
24694,274,818,1752,-986,-869,1627
24704,-29,400,1587,-1678,-1086,1410
24714,-11,-197,1411,-2159,-1223,1205
24724,208,-768,1253,-2295,-1225,1037
24734,529,-1352,1391,-2246,-1067,902
24744,636,-1992,1683,-2169,-859,792
24754,555,-2769,2094,-1999,-699,654
24764,445,-3359,2545,-1920,-554,457
24774,452,-3544,2661,-1798,-423,244
24784,786,-3799,2827,-1288,33,73
24794,529,-3730,3828,-1503,349,-13
24804,-67,-3235,3698,-1983,465,-252
24814,-581,-3397,3534,-1919,411,-419
24824,-676,-4110,3384,-1989,313,-388
24834,-561,-4470,2987,-1978,247,-420
24844,-465,-4454,2685,-1825,259,-466
24854,-698,-4313,2446,-1591,167,-520
24864,-573,-4152,2616,-1183,102,-528
24874,-651,-3781,2424,-812,3,-434
24884,-339,-3493,2367,-583,-105,-246
24894,-149,-3434,2525,-1086,-154,8
24905,-284,-3486,1732,-1382,-134,15
24915,-369,-3552,1802,-1294,-1,119
24925,-679,-3364,1770,-1486,-45,334
24935,-784,-3068,1492,-1502,-113,393
24945,-773,-3135,1281,-1268,-222,402
24955,-698,-3525,1242,-863,-286,435
24965,-616,-3892,1331,-375,-334,420
24975,-615,-3801,1464,12,-296,366
24985,-720,-3400,1681,180,-226,334
24995,-744,-3012,1786,159,-190,340
25005,-632,-2838,1910,-28,-203,331
25015,-501,-2907,1914,-326,-213,325
25025,-476,-3164,1649,-532,-228,260
25035,-468,-3475,1578,-614,-232,209
25045,-474,-3570,1311,-661,-231,221
25055,-495,-3503,1076,-539,-222,228
25065,-509,-3398,1077,-407,-208,228
25075,-513,-3285,1014,-303,-213,250
25085,-532,-3263,945,-212,-208,277
25095,-571,-3301,1032,-271,-178,301
25105,-657,-3275,1116,-403,-115,311
25115,-808,-3246,1211,-644,-85,308
25125,-890,-3184,1213,-864,-96,268
25135,-887,-3181,1176,-1026,-119,234
25146,-866,-3266,1125,-1062,-164,169
25156,-792,-3313,1209,-1040,-169,142
25166,-870,-3332,1234,-956,-221,166
25176,-1017,-3348,1242,-856,-281,179
25186,-1040,-3394,1295,-800,-319,141
25196,-987,-3209,1363,-839,-353,132
25206,-1082,-2965,1387,-864,-360,112
25216,-1244,-2908,1506,-950,-398,51
25226,-1300,-2982,1484,-1095,-465,-30
25236,-1182,-3193,1358,-1114,-507,-119
25246,-1042,-3343,1205,-1023,-504,-194
25256,-957,-3348,1081,-850,-516,-247
25266,-962,-3335,971,-646,-528,-256
25276,-1053,-3418,962,-499,-563,-244
25286,-1031,-3510,933,-429,-617,-255
25296,-970,-3574,935,-371,-656,-277
25306,-927,-3543,986,-334,-655,-323
25316,-851,-3513,1074,-371,-649,-353
25326,-839,-3482,1113,-476,-634,-378
25336,-801,-3542,1111,-601,-627,-421
25347,-746,-3612,1062,-703,-601,-470
25357,-705,-3682,893,-725,-590,-505
25367,-714,-3824,827,-640,-575,-490
25377,-689,-3992,777,-560,-550,-485
25387,-607,-4071,723,-429,-537,-473
25397,-540,-4078,756,-199,-500,-470
25407,-516,-3954,886,-50,-489,-462
25417,-507,-3704,1000,27,-489,-425
25427,-492,-3496,1100,92,-480,-388
25437,-415,-3402,1163,71,-440,-401
25447,-312,-3384,1084,-14,-402,-409
25457,-207,-3492,1063,13,-370,-375
25467,-260,-3657,1080,52,-327,-335
25477,-291,-3861,921,78,-287,-339
25487,-255,-3936,858,74,-256,-336
25497,-250,-3966,831,93,-217,-361
25507,-313,-3938,790,116,-184,-377
25517,-346,-3861,1010,168,-194,-372
25527,-402,-3693,1632,173,-222,-437
25537,-656,-3672,300,374,-299,-540
25548,-693,-3527,824,122,-142,-477
25558,-803,-3007,414,-342,-239,-717
25568,-742,-2936,510,-420,-297,-748
25578,-1010,-3351,537,-761,-345,-708
25588,-1169,-4035,245,-897,-438,-781
25598,-1088,-4919,192,-690,-522,-820
25608,-1045,-5665,360,-403,-594,-795
25618,-1096,-6182,379,-204,-706,-791
25628,-1233,-6644,485,-29,-911,-827
25638,-1357,-6980,400,162,-1150,-941
25648,-1179,-7051,647,281,-1328,-958
25658,-887,-6857,667,359,-1469,-864
25668,-509,-6754,526,685,-1572,-708
25678,-132,-6699,556,1028,-1582,-455
25688,88,-6307,543,1246,-1519,-177
25698,123,-5676,508,1420,-1451,41
25708,138,-5122,755,1435,-1392,252
25718,76,-4683,1037,1215,-1314,487
25728,-9,-4412,1227,983,-1223,627
25738,78,-4243,1352,911,-1128,701
25749,243,-3930,1940,987,-1114,783
25759,1,-3394,2302,1079,-1190,845
25769,-375,-3216,2353,1132,-1275,862
25779,-472,-3552,2262,1130,-1363,913
25789,-360,-3997,2083,1121,-1395,918
25799,-64,-4275,1635,1253,-1357,870
25809,104,-4340,1484,1479,-1280,862
25819,54,-4291,1444,1630,-1295,877
25829,19,-4113,1287,1710,-1284,874
25839,96,-3929,1090,1767,-1271,870
25849,254,-3784,848,1805,-1239,899
25859,381,-3827,607,1917,-1173,996
25869,438,-4062,482,2174,-1109,1119
25879,445,-4246,456,2493,-1062,1182
25889,416,-4153,718,2723,-974,1181
25899,208,-3733,733,2942,-897,1064
25909,299,-3164,980,3015,-781,943
25919,613,-2799,1162,3054,-643,947
25929,671,-2533,1141,3155,-412,970
25939,452,-2194,1241,3140,-172,739
25950,201,-1530,1292,2956,-24,425
25960,57,-826,1304,2712,99,273
25970,-59,-312,1323,2424,137,223
25980,-200,-154,1409,2083,104,43
25990,-68,-297,1468,1785,-6,-256
26000,167,-626,1595,1544,-132,-469
26010,437,-908,1814,1246,-205,-650
26020,604,-1098,2150,908,-360,-871
26030,649,-1404,2168,690,-498,-1142
26040,679,-1836,1998,617,-685,-1359
26050,697,-2178,1867,726,-850,-1536
26060,721,-2178,1767,832,-1022,-1754
26070,813,-2004,1906,931,-1188,-1930
26080,974,-2044,2032,1049,-1315,-2064
26090,1187,-2183,2138,1168,-1434,-2162
26100,1358,-2213,2229,1332,-1523,-2242
26110,1397,-2134,2013,1559,-1616,-2302
26120,1426,-2200,2011,1751,-1717,-2315
26130,1540,-2508,1860,1934,-1854,-2361
26140,1829,-2881,2163,2061,-1870,-2392
26151,2258,-2944,2486,2147,-1816,-2286
26161,2612,-2826,3102,2299,-1684,-2139
26171,2795,-2569,3862,2288,-1571,-2005
26181,2736,-2317,4304,2006,-1463,-1925
26191,2658,-2113,4452,1667,-1363,-1845
26201,2551,-2189,4161,1573,-1260,-1740
26211,2545,-2631,4700,1594,-1187,-1534
26221,2659,-2846,5372,1379,-1127,-1289
26231,2805,-2815,5925,1273,-1061,-1109
26241,2947,-2910,6359,1201,-953,-976
26251,2940,-2995,6489,1090,-836,-895
26261,2824,-3084,6471,1027,-699,-843
26271,2733,-3197,6318,996,-560,-818
26281,2851,-2929,5795,969,-349,-853
26291,3085,-2880,6033,1036,-103,-783
26301,2824,-2333,6067,680,215,-707
26311,2690,-1865,5555,484,512,-764
26321,2383,-1923,5200,458,698,-501
26331,2134,-1783,4806,539,873,-289
26341,1986,-1234,4492,735,1115,-172
26352,1755,-613,4085,858,1325,-75
26362,1547,-116,3706,938,1441,26
26372,1443,110,3604,1045,1489,127
26382,1384,355,3558,959,1557,168
26392,1412,501,3558,890,1567,100
26402,1508,452,3613,770,1502,77
26412,1658,223,3600,698,1451,32
26422,1796,-237,3523,674,1448,-41
26432,1847,-701,3331,747,1422,-123
26442,1620,-750,2987,835,1343,-89
26452,1273,-147,2658,768,1210,67
26462,1235,360,2667,676,1076,60
26472,1411,227,2576,590,1079,-52
26482,1532,-278,2642,419,1080,-77
26492,1547,-536,2553,296,1043,-134
26502,1923,-392,2682,286,1033,-431
26512,1459,448,2783,290,1098,-289
26522,996,1030,3226,115,1071,-162
26532,787,988,3206,-303,989,-114
26542,792,625,3249,-697,847,-131
26553,1032,177,3264,-912,714,-220
26563,1261,-360,2902,-884,696,-189
26573,1216,-824,3002,-579,663,-29
26583,1027,-967,3047,-372,572,-3
26593,888,-869,2929,-205,468,-41
26603,837,-723,2947,-85,394,-25
26613,818,-481,2841,-82,404,46
26623,798,-274,2738,-19,469,107
26633,850,-43,2757,81,567,150
26643,816,146,2908,238,670,199
26653,743,249,3135,362,756,243
26663,582,320,3450,347,761,237
26673,360,256,3774,99,586,287
26683,56,-9,2769,-174,211,400
26693,109,-107,2524,137,113,202
26703,492,266,2532,240,139,-2
26713,745,987,3010,-73,151,55
26723,665,1274,3283,-670,192,243
26733,439,464,2991,-1008,211,495
26743,448,-926,2888,-876,276,620
26754,803,-1735,2937,-495,464,434
26764,959,-1352,3247,-72,715,222
26774,656,-422,3904,89,890,274
26784,30,283,4335,-266,856,301
26794,-311,396,4336,-795,656,194
26804,-144,79,4139,-1237,436,107
26814,47,-385,3898,-1427,266,81
26824,120,-815,3406,-1355,143,-24
26834,278,-1178,3163,-1058,160,-139
26844,139,-1260,3063,-965,155,-222
26854,82,-1109,3002,-862,119,-415
26864,129,-865,3293,-935,113,-495
26874,-47,-622,3385,-1294,50,-562
26884,-156,-494,3463,-1735,-51,-599
26894,-31,-532,3338,-2226,-141,-597
26904,124,-712,3105,-2511,-187,-574
26914,89,-953,3044,-2656,-273,-539
26924,-7,-857,2822,-2760,-347,-555
26934,55,-620,2826,-2848,-427,-474
26944,-17,-864,2639,-2795,-562,-370
26955,-70,-1756,2649,-2565,-750,-342
26965,31,-2753,2674,-2327,-851,-394
26975,270,-3350,2743,-2086,-894,-471
26985,578,-3522,2953,-1799,-830,-561
26995,695,-3341,3224,-1655,-805,-661
27005,508,-2948,3506,-1788,-851,-745
27015,449,-2560,3627,-2105,-965,-812
27025,693,-2516,3471,-2348,-1049,-861
27035,949,-2740,3000,-2167,-1049,-903
27045,1441,-2885,3366,-2030,-1027,-831
27055,1898,-3048,3504,-2007,-1033,-643
27065,2490,-3572,3450,-1729,-1037,-480
27075,2845,-4291,3692,-1300,-946,-358
27085,2630,-4340,3818,-1082,-825,-352
27095,2205,-3785,3826,-944,-790,-398
27105,1912,-3402,3943,-911,-830,-349
27115,1914,-3338,4017,-1136,-861,-241
27125,2121,-3430,3796,-1320,-823,-167
27135,2346,-3610,3586,-1308,-731,-89
27145,2567,-3864,3667,-1080,-612,3
27155,2565,-4156,3687,-739,-515,97
27166,2386,-3972,3311,-191,-503,-56
27176,2404,-3113,3425,142,-447,-160
27186,2280,-2602,3673,173,-429,14
27196,2298,-2592,3559,-120,-471,23
27206,2434,-2873,3228,-328,-446,-45
27216,2334,-2954,2979,-341,-321,-51
27226,2153,-2837,2884,-306,-187,-13
27236,2060,-2651,2860,-314,-76,-30
27246,2021,-2506,2811,-280,7,-97
27256,1939,-2436,2918,-248,68,-142
27266,1854,-2396,2915,-206,120,-169
27276,1872,-2433,2993,-238,146,-218
27286,1967,-2615,2978,-215,207,-279
27296,2056,-2801,2956,-174,277,-338
27306,2111,-2745,2887,-130,336,-404
27316,2101,-2584,2835,-136,423,-464
27326,2050,-2460,2665,-229,491,-524
27336,2123,-2511,2523,-264,562,-585
27346,2211,-2597,2322,-306,654,-625
27356,2262,-2603,2172,-274,760,-674
27366,2223,-2524,2133,-262,841,-731
27376,2261,-2529,2033,-240,905,-789
27386,2357,-2731,1982,-209,968,-798
27396,2406,-2912,1924,-213,1020,-823
27406,2487,-3018,1894,-209,1120,-893
27417,2481,-2877,1868,-288,1235,-953
27427,2429,-2664,1729,-338,1326,-1023
27437,2427,-2656,1648,-335,1389,-1069
27447,2405,-2717,1570,-318,1433,-1129
27457,2404,-2780,1534,-219,1469,-1228
27467,2396,-2715,1522,-156,1525,-1303
27477,2415,-2522,1500,-150,1572,-1408
27487,2460,-2478,1553,-161,1617,-1479
27497,2513,-2673,1589,-229,1654,-1535
27507,2551,-2866,1674,-305,1679,-1610
27517,2520,-2976,1768,-397,1701,-1706
27527,2560,-2963,1820,-548,1719,-1811
27537,2599,-2900,1795,-690,1737,-1897
27547,2597,-2928,1777,-829,1756,-1954
27557,2608,-3049,1800,-939,1782,-1986
27567,2620,-3226,1769,-1010,1826,-2007
27577,2640,-3281,1808,-1039,1878,-2068
27587,2585,-3274,1861,-1044,1907,-2124
27597,2551,-3285,1853,-1050,1897,-2147
27607,2629,-3478,1880,-991,1894,-2140
27617,2633,-3803,1998,-917,1912,-2056
27627,2505,-4021,2091,-903,1912,-2001
27637,2394,-3965,2050,-913,1893,-2010
27647,2308,-3750,2031,-880,1867,-2029
27657,2099,-3410,2018,-880,1783,-2044
27668,1882,-3090,2052,-917,1683,-2026
27678,1672,-2928,2135,-993,1564,-1980
27688,1556,-2970,2153,-1036,1435,-1896
27698,1509,-3119,2141,-957,1341,-1797
27708,1383,-3333,2232,-811,1255,-1703
27718,1204,-3430,2367,-596,1143,-1640
27728,1079,-3425,2491,-341,1008,-1607
27738,1064,-3286,2674,-133,892,-1608
27748,1050,-2901,2926,-52,815,-1649
27758,964,-2539,3170,-117,712,-1666
27768,955,-2327,3292,-312,574,-1663
27778,1132,-2383,3273,-499,485,-1644
27788,1290,-2519,3229,-594,451,-1595
27798,1374,-2688,3274,-535,463,-1540
27808,1361,-2722,3323,-431,485,-1517
27818,1338,-2565,3415,-317,501,-1559
27828,1338,-2219,3518,-265,495,-1601
27838,1309,-1936,3604,-271,478,-1592
27848,1244,-1833,3674,-322,445,-1556
27858,1198,-1868,3665,-399,405,-1527
27868,1217,-1889,3556,-443,384,-1484
27878,1246,-1893,3372,-432,391,-1418
27888,1249,-1945,3293,-368,419,-1320
27898,1172,-2016,3169,-295,455,-1237
27908,1070,-1988,3146,-173,490,-1190
27919,1008,-1818,3206,-105,505,-1183
27929,1005,-1651,3232,-85,533,-1169
27939,1000,-1509,3200,-147,553,-1143
27949,970,-1465,3112,-166,549,-1117
27959,989,-1505,3041,-167,535,-1089
27969,1083,-1482,2872,-148,503,-1068
27979,1209,-1378,2777,-33,498,-1078
27989,1300,-1339,2849,60,483,-1090
27999,1363,-1275,2796,74,466,-1104
28009,1433,-1108,2577,-3,460,-1116
28019,1581,-856,2143,7,498,-1133
28029,1779,-1005,2159,61,545,-1055
28039,1721,-1427,2020,55,640,-958
28049,1703,-1088,2042,-95,809,-1002
28059,1756,-846,1502,501,706,-1397
28069,2281,-1808,1382,1133,725,-1015
28079,2491,-1510,2115,1412,1096,-950
28089,2321,-60,2888,973,1483,-1109
28099,1672,441,3598,124,1389,-869
28109,1488,-309,3514,-797,1151,-787
28119,2024,-1206,4051,-1411,1319,-874
28129,1590,-1680,4636,-1917,1089,-981
28139,756,-1769,3964,-2300,781,-1132
28149,1009,-1252,2841,-1287,501,-1669
28160,1273,-1365,2744,67,105,-1739
28170,827,-226,3181,839,-266,-1819
28180,589,-87,2921,1355,-946,-2121
28190,515,-397,2912,1782,-1651,-2547
28200,822,265,2440,1712,-2388,-3005
28210,1537,673,1850,1637,-2899,-3429
28220,1942,692,1604,1482,-3276,-3719
28230,2126,829,1703,1375,-3606,-3706
28240,2173,870,1764,1406,-3902,-3834
28250,2422,790,1568,1283,-4124,-4079
28260,2834,132,127,1207,-4007,-4247
28270,3426,1767,236,358,-4287,-3531
28280,5140,3146,557,-648,-3226,-3060
28290,4639,3970,-45,-1499,-2894,-2682
28300,4269,4328,-1915,-1121,-2440,-2622
28310,3925,-107,479,-450,-3073,-1617
28320,7461,-1188,2028,-1614,-3368,-24
28330,8429,-1582,3080,-3195,-2661,1037
28340,6648,-1700,2721,-5484,-2302,330
28350,5994,-2727,1184,-5096,-2182,-1152
28361,6325,-4602,-28,-3306,-2146,-555
28371,5285,-6453,-43,-908,-1708,63
28381,4886,-6088,12,754,-1301,-885
28391,4184,-2463,-156,791,-932,-866
28401,3598,59,136,676,-864,-453
28411,3489,541,825,-431,-758,-48
28421,3914,-699,1823,-1822,-597,555
28431,3582,-4286,2207,-1734,-635,587
28441,2897,-6159,2087,-1105,-1053,160
28451,2945,-2487,1148,-109,-1562,-767
28461,3614,1668,1702,813,-1652,-725
28471,3583,2995,2370,110,-2080,451
28481,3139,1897,1553,-1338,-2347,945
28491,3997,490,977,-2235,-2180,994
28501,4763,-999,813,-1819,-1386,764
28511,5024,-1340,1319,-1336,-739,798
28521,4425,840,2233,-1286,-389,873
28531,4359,2227,2781,-2243,-565,1407
28541,5008,743,1821,-3337,-675,2258
28551,5478,-2156,479,-3288,-28,2535
28562,5163,-4070,98,-2250,890,2255
28572,4318,-3930,8,-1152,1478,2069
28582,3863,-2203,733,-496,1875,1839
28592,3862,-1039,329,-82,2204,1634
28602,3852,-803,773,-177,2469,1607
28612,4199,-980,1593,-814,2960,1516
28622,4598,-2428,1957,-707,3581,1263
28632,4348,-4180,2887,73,4093,994
28642,3782,-5405,1405,2411,3569,597
28652,5304,-3426,3272,4176,2806,1145
28662,4322,820,4550,2083,2491,716
28672,3308,3094,2955,386,1732,-413
28682,3026,328,2967,49,826,-43
28692,3476,-2667,1580,-521,-9,184
28702,4663,-3400,942,431,-221,-168
28712,4924,-1664,1843,946,-268,-577
28722,4522,827,1709,693,-478,-812
28732,4167,2064,1207,475,-887,-583
28742,3755,2161,1131,-329,-1362,-135
28752,3706,1782,634,-1021,-1815,103
28763,3252,871,570,-1494,-2595,506
28773,3402,637,-1302,-2023,-3086,648
28783,4523,-162,-936,-1606,-2975,656
28793,4590,-797,-1279,-1733,-2591,901
28803,4697,-1259,-1022,-2019,-2173,803
28813,4132,-1374,-1356,-2411,-1917,569
28823,3673,-1567,-1486,-2653,-1816,519
28833,3508,-2022,-1409,-2723,-1803,431
28843,3891,-2262,-1533,-2760,-1093,-268
28853,4151,-2320,-2175,-2044,-486,-723
28863,4207,-2655,-1963,-930,279,-725
28873,4356,-2006,-92,-583,1062,-643
28883,3848,-652,672,-1346,1354,-608
28893,3699,-351,517,-1712,1170,-397
28903,3552,-1033,893,-2224,1230,-152
28913,3376,-1655,686,-2760,1354,-160
28923,2989,-2293,809,-2887,1480,-182
28933,2683,-2337,1356,-3214,1434,-326
28943,2229,-2423,1153,-3288,1229,-518
28953,2590,-3238,814,-2946,853,-872
28964,3755,-3706,428,-2185,673,-967
28974,3869,-3075,302,-1697,527,-647
28984,3729,-1983,365,-1867,626,-651
28994,4268,-1131,668,-2029,1099,-459
29004,4464,-1196,1064,-2381,1173,-22
29014,4443,-1916,465,-2944,844,83
29024,4854,-2802,-802,-2563,819,93
29034,4657,-2757,-1369,-1741,1147,140
29044,4354,-1461,-1413,-1553,1373,-79
29054,5039,-132,-1554,-1746,1937,-190
29064,5161,102,-1477,-1927,2895,-255
29074,4793,-785,-2046,-1384,3589,-450
29084,4780,-1399,-1876,-247,4108,-435
29094,4586,-520,-230,357,4661,-631
29104,4481,644,1334,485,5386,-1091
29114,3328,528,2378,24,5017,-1122
29124,2794,-1212,1367,382,4392,-1454
29134,3392,-3213,2113,853,4083,-1130
29144,2390,-4073,2532,1163,3609,-1341
29154,1694,-1993,2496,470,3393,-2058
29165,1588,-14,3440,-578,2689,-2495
29175,1611,-1408,2880,-1732,1617,-2872
29185,2009,-2759,1954,-2430,1100,-3196
29195,3148,-1003,1065,-1858,1349,-3208
29205,3956,1424,3192,-1394,1291,-2674
29215,2517,1028,3142,-1771,330,-2112
29225,1779,-730,2512,-1805,-335,-2108
29235,3133,-905,1441,-991,-348,-2213
29245,2933,69,1426,-1206,-947,-2512
29255,3384,1677,726,-1726,-1348,-2223
29265,3752,749,964,-2758,-1714,-1590
29275,4524,-978,550,-3592,-1856,-1258
29285,4677,-1916,251,-3926,-1927,-990
29295,4467,-2459,457,-4031,-1836,-1043
29305,5070,-3042,1017,-3966,-1462,-880
29315,4605,-2932,-6,-3867,-1457,-796
29325,4259,-2508,-976,-3334,-1428,-684
29336,3858,-2182,-1319,-2829,-1460,-354
29346,3652,-2823,-2017,-2859,-1269,-253
29356,3859,-3069,-3353,-2488,-655,-729
29366,5108,-2706,-2621,-1212,-92,-405
29376,4511,-2510,-1202,-1124,476,79
29386,3734,-2194,-1034,-1835,649,-109
29396,3768,-2028,-1897,-2171,1160,-267
29406,3296,-3218,-1529,-2156,1515,-160
29416,2987,-3714,-1562,-1923,1233,-152
29426,3016,-4473,-2252,-451,907,-161
29436,3582,-3990,-943,312,1283,-210
29446,3424,-2696,-687,804,1322,-603
29456,2935,-1567,-212,1506,1138,-646
29466,2428,-1083,541,1462,639,-337
29476,3060,-1131,-61,1273,292,-92
29486,3356,-1644,250,691,-40,250
29497,3204,-1665,25,-73,-322,59
29507,3280,-1146,5,-473,-586,-358
29517,3556,-1226,-318,-369,-865,-604
29527,4430,-1837,-713,45,-909,-675
29537,5144,-2058,-1192,639,-976,-372
29547,5678,-1524,-939,884,-782,-36
29557,5827,-367,-453,327,-646,109
29567,5598,478,134,-417,-786,144
29577,5268,495,355,-1094,-1105,186
29587,5105,139,149,-1267,-1483,80
29597,5291,14,-212,-1045,-1933,-87
29607,5500,142,-391,-535,-2392,-179
29617,5758,-11,-577,253,-2878,-137
29627,5766,-224,-415,897,-3213,-51
29637,6212,-282,-598,1410,-3494,34
29647,6603,-310,-638,1877,-3723,144
29657,6694,-308,-654,2372,-3933,261
29668,6501,-374,-679,2967,-4124,401
29678,6322,-523,-565,3716,-4298,539
29688,6263,-563,-413,4438,-4472,642
29698,6325,-558,-454,5221,-4600,710
29708,6376,-590,-482,5950,-4634,793
29718,6416,-608,-605,6608,-4566,898
29728,6339,-390,-540,7037,-4397,1029
29738,6225,-241,-669,7369,-4217,1134
29748,6245,-262,-850,7688,-3963,1292
29758,6227,-213,-869,7887,-3598,1478
29768,6098,-63,-784,8082,-3181,1641
29778,5818,97,-674,8108,-2803,1853
29788,5521,171,-573,8096,-2386,2125
29798,5393,184,-437,8067,-1904,2381
29808,5209,501,87,7760,-1364,2603
29818,4814,1078,69,6893,-898,2625
29828,4524,1266,347,6164,-415,2786
29839,3861,889,476,5550,7,3123
29849,3159,226,949,4843,304,3255
29859,2912,-548,1178,4389,540,3158
29869,2564,-812,2026,3887,569,3047
29879,2094,-949,1922,3695,356,2818
29889,2409,-1533,1623,3713,-35,2734
29899,2989,-2392,1458,3674,-315,2687
29909,3019,-3397,1120,3746,-758,2372
29919,3095,-3980,712,3845,-1048,1928
29929,2911,-3733,305,3950,-1178,1580
29939,2377,-3460,-130,4182,-1460,1306
29949,2495,-3228,297,4146,-1523,1191
29959,2530,-2967,94,4418,-1648,1041
29969,3466,-1884,1063,3508,-1114,1184
29979,2700,-317,1388,1824,-778,1192
29989,4222,-819,144,3051,-521,1609
30000,4713,-3319,1108,4598,171,2895
30010,3342,-3533,2362,4888,373,2624
30020,2660,-1385,3013,3774,436,2604
30030,1911,-403,2992,2542,361,2780
30040,2138,-1836,2364,2345,231,2402
30050,2765,-3459,1952,2276,173,2246
30060,2738,-2990,1738,2216,161,1770
30070,2282,-1207,2101,2180,332,1254
30080,1222,402,2864,1794,330,804
30090,670,1515,2881,1361,168,297
30100,683,1914,2581,1023,-79,-116
30110,1089,1865,2005,589,-341,-475
30120,1335,1633,1648,233,-415,-886
30130,1522,1225,1622,24,-413,-1314
30140,1747,981,1947,-27,-396,-1657
30150,2053,1176,2256,-255,-341,-1988
30160,2320,1164,2676,-297,-253,-2273
30170,2543,942,2880,-663,-256,-2512
30180,3087,727,2720,-996,-219,-2709
30190,3548,560,2466,-1242,-106,-2867
30201,3840,364,2484,-1288,-12,-2972
30211,3908,289,2481,-1447,11,-3102
30221,4038,377,2180,-1742,19,-3229
30231,4485,462,1792,-1964,91,-3308
30241,4863,116,1576,-2133,199,-3286
30251,5029,-362,1576,-2421,311,-3194
30261,5221,-836,1839,-2620,430,-3095
30271,5391,-761,2085,-3424,566,-3147
30281,5994,-1933,1543,-3175,840,-2785
30291,5920,-3329,1565,-2580,1033,-2280
30301,6235,-2880,1170,-2041,1266,-1842
30311,5928,-2658,1397,-1499,1573,-1461
30321,5329,-2969,1958,-1080,1781,-945
30331,4597,-2204,2098,-912,1872,-847
30341,4303,-976,2319,-967,1869,-832
30351,4224,-618,2239,-1288,1879,-689
30361,4274,-1221,2130,-1620,1860,-550
30371,4129,-1884,2079,-1843,1858,-414
30381,3916,-2167,2100,-1893,1833,-317
30391,3746,-1953,2098,-1999,1880,-298
30401,3581,-1883,2082,-2164,1900,-320
30411,3479,-2480,1674,-1931,1861,-216
30421,3648,-3122,1591,-1424,1915,-23
30431,3391,-3248,1898,-1127,1891,-9
30441,3082,-2903,2016,-1145,1795,-168
30451,3028,-2754,2100,-1247,1637,-271
30461,3165,-3037,2092,-1417,1437,-501
30471,3276,-3289,1779,-1500,1273,-699
30481,3293,-3644,1580,-1336,1198,-836
30491,3214,-4073,1276,-1047,1167,-938
30501,2861,-4541,1343,-757,1113,-1039
30511,2517,-4101,1694,-1208,1106,-1191
30521,2383,-3331,1539,-1824,1075,-1422
30531,2241,-2451,1486,-2574,1149,-1410
30541,1973,-1211,1042,-3388,1239,-1320
30551,1818,-546,766,-4177,1174,-1086
30561,2325,-1143,613,-4441,1142,-1082
30571,2999,-2661,493,-3819,1393,-966
30581,2881,-3246,448,-2948,1802,-650
30591,2655,-2512,549,-2128,2137,-460
30601,2448,-1895,837,-1624,2247,-384
30611,2431,-1919,912,-1538,2274,-419
30621,2565,-2262,694,-1313,2363,-489
30631,2590,-2487,729,-1087,2381,-574
30641,2584,-2518,748,-896,2302,-728
30651,2623,-2523,815,-812,2130,-900
30661,2750,-2618,789,-847,1881,-1064
30671,3036,-2655,400,-855,1701,-1225
30681,3200,-2612,292,-760,1520,-1311
30691,3447,-2380,145,-779,1464,-1304
30702,3663,-2654,188,-556,1455,-1285
30712,3684,-3361,341,-289,1354,-1291
30722,3841,-3378,1038,-92,1372,-1341
30732,3635,-3151,1561,117,1330,-1339
30742,3418,-3664,1724,187,1195,-1255
30752,3377,-3604,1572,-211,1015,-1205
30762,3782,-2372,1223,-638,1081,-1350
30772,3910,-1633,1368,-1017,1094,-1229
30782,3569,-2490,1720,-1264,956,-958
30792,3150,-3198,1652,-1291,860,-878
30802,3057,-2672,2114,-1167,946,-877
30812,2963,-2351,2330,-1204,888,-812
30822,3011,-2789,2251,-1226,863,-701
30832,2882,-3155,2426,-1175,913,-577
30842,2626,-3309,2628,-1100,909,-485
30852,2510,-3434,2644,-1064,911,-401
30862,2626,-3774,2441,-995,973,-307
30872,2571,-4118,2497,-893,1045,-233
30882,2220,-4013,2763,-786,1113,-147
30892,2112,-3820,2807,-751,1097,-13
30902,2123,-3785,2594,-630,1060,148
30912,2042,-3881,2424,-595,1032,307
30922,2024,-3566,2050,-755,1046,369
30932,1826,-3459,1889,-842,993,452
30942,1606,-3683,1848,-925,845,561
30952,1832,-3963,1288,-918,767,625
30962,1998,-4427,981,-658,784,691
30972,1812,-4696,1097,-322,821,734
30982,1586,-4271,1432,-123,858,781
30992,1561,-3943,1568,-32,814,870
31002,1464,-3936,1592,-70,736,989
31012,1448,-4068,1326,-92,683,1062
31022,1369,-4362,1126,-24,607,1153
31032,1225,-4487,1031,46,496,1216
31042,1188,-4606,858,98,370,1293
31052,1256,-4805,679,107,270,1362
31062,1297,-4932,673,231,262,1435
31072,1089,-4896,718,243,236,1504
31082,911,-4706,849,262,198,1553
31092,763,-4507,824,256,125,1634
31102,669,-4302,963,223,43,1734
31112,496,-4085,1026,152,-69,1780
31122,399,-4167,1010,80,-223,1800
31132,549,-4383,799,170,-329,1820
31142,713,-4428,696,349,-368,1888
31152,702,-4265,337,581,-423,1942
31162,640,-4029,273,915,-459,2057
31173,578,-3579,119,869,-488,2101
31183,701,-3725,254,691,-577,2068
31193,937,-4226,260,650,-635,2028
31203,1027,-4032,620,786,-641,2043
31213,1032,-3684,930,858,-730,2145
31223,1051,-3762,1103,789,-865,2309
31233,1061,-4146,1058,743,-1030,2342
31243,1173,-4251,1004,713,-1100,2313
31253,1268,-4112,911,659,-1129,2259
31263,1380,-4170,796,676,-1150,2291
31273,1412,-4267,606,737,-1178,2348
31283,1311,-4229,531,783,-1204,2337
31293,1299,-3980,505,756,-1221,2247
31303,1271,-3762,559,797,-1272,2189
31313,1139,-3588,673,807,-1383,2198
31323,1007,-3271,787,712,-1537,2179
31333,961,-3077,860,598,-1714,2138
31344,949,-3036,965,459,-1891,2093
31354,1006,-3017,963,318,-2066,2039
31364,1112,-3001,861,217,-2180,1995
31374,1252,-3026,681,302,-2250,1977
31384,1387,-3103,574,433,-2271,1983
31394,1441,-3074,536,497,-2282,1932
31404,1516,-2988,649,538,-2263,1820
31414,1548,-2948,790,602,-2259,1736
31424,1553,-2919,884,705,-2259,1656
31434,1751,-2718,1152,691,-2262,1502
31444,1835,-2553,1540,541,-2233,1430
31454,1802,-2639,1656,347,-2273,1337
31464,1872,-2882,1680,271,-2318,1267
31474,2042,-2868,1612,131,-2343,1158
31484,2242,-2739,1669,84,-2335,1068
31494,2268,-2742,1699,52,-2289,1034
31505,2255,-2843,1563,124,-2239,965
31515,2254,-2927,1632,186,-2164,884
31525,2274,-2788,1742,181,-2095,711
31535,2393,-2732,1812,234,-2007,572
31545,2467,-2824,1953,283,-1894,504
31555,2451,-2800,2068,336,-1785,423
31565,2361,-2702,2182,391,-1684,349
31575,2228,-2596,2295,320,-1609,269
31585,2134,-2436,2177,201,-1554,204
31595,2104,-2359,2022,116,-1479,180
31605,2096,-2318,1735,50,-1375,154
31615,2116,-2410,1492,29,-1259,135
31625,2136,-2632,1391,192,-1107,106
31635,1913,-2785,1365,332,-1008,58
31645,1822,-2550,1378,387,-943,-85
31655,1916,-2318,1592,379,-874,-159
31665,1852,-2345,1793,265,-841,-209
31676,1807,-2482,1917,153,-880,-290
31686,1834,-2517,1989,26,-942,-383
31696,1960,-2640,2039,-76,-985,-439
31706,2096,-2978,2229,-266,-1010,-435
31716,2190,-3361,2316,-357,-1036,-425
31726,2222,-3626,2471,-439,-1054,-420
31736,2252,-3622,2621,-524,-1051,-401
31746,2198,-3559,2768,-575,-1050,-369
31756,2205,-3443,2756,-577,-1065,-375
31766,2335,-3282,2847,-556,-1059,-376
31776,2435,-3107,2954,-548,-1040,-370
31786,2430,-2906,3022,-529,-1025,-371
31796,2370,-2742,3178,-534,-1025,-373
31806,2396,-2590,3241,-565,-1023,-366
31816,2447,-2503,3311,-583,-985,-348
31826,2467,-2470,3384,-569,-937,-321
31836,2414,-2389,3407,-545,-884,-286
31847,2370,-2261,3422,-535,-841,-260
31857,2372,-2155,3448,-548,-803,-259
31867,2332,-2152,3438,-467,-788,-253
31877,2259,-2042,3354,-399,-779,-262
31887,2308,-1847,3214,-286,-759,-291
31897,2368,-1735,3291,-162,-697,-286
31907,2264,-1672,3297,-123,-658,-287
31917,2085,-1606,3209,-92,-657,-325
31927,2035,-1586,3140,-29,-653,-367
31937,2008,-1637,3136,32,-648,-418
31947,1967,-1670,3155,35,-625,-464
31957,1912,-1647,3108,39,-620,-515
31967,1882,-1604,2897,23,-600,-546
31977,1874,-1651,2682,73,-551,-523
31987,1860,-1910,2667,207,-463,-497
31997,1800,-2114,2620,256,-422,-536
32008,1786,-2041,2569,336,-420,-623
32018,1827,-2017,2530,471,-403,-680
32028,1754,-2108,2569,501,-374,-699
32038,1774,-2104,2556,400,-384,-739
32048,1854,-2108,2541,334,-361,-732
32058,1889,-2478,2627,307,-315,-645
32068,1820,-2884,2652,304,-342,-581
32078,1742,-2631,2691,225,-353,-660
32088,1821,-2621,2643,523,-360,-594
32098,1699,-3024,2888,621,-418,-362
32108,1602,-3302,2828,583,-473,-341
32118,1485,-3288,2866,589,-499,-413
32128,1587,-3098,2859,676,-478,-442
32138,1574,-2878,3317,267,-481,-263
32148,1428,-2789,2964,89,-514,-178
32158,1240,-3100,2738,258,-554,-62
32168,1112,-3347,2476,518,-592,81
32179,1086,-3259,2361,710,-555,124
32189,1045,-3253,2200,894,-470,119
32199,893,-3373,2176,1243,-338,192
32209,687,-3329,2606,1521,-154,302
32219,457,-3008,2710,1604,-146,242
32229,603,-2551,3531,1609,-165,291
32239,629,-2080,4195,906,-287,386
32249,372,-2768,4312,215,-444,437
32259,175,-4297,4181,-174,-609,510
32269,293,-5590,4278,-192,-653,692
32279,54,-5918,2702,374,-535,963
32289,-1018,-6653,1069,2577,-442,1800
32299,-632,-6803,215,3751,-905,1125
32309,681,-2667,-1199,3269,-708,784
32319,666,1111,-107,2338,-222,936
32329,-75,2285,1306,-381,-311,1241
32339,-427,180,593,-2515,-985,1515
32349,1169,-6523,647,-1487,-1065,1990
32359,1241,-13969,-83,2161,-788,2022
32369,1368,-11738,-66,5125,-467,1128
32380,2188,-3251,-904,5553,1,844
32390,1080,1580,608,4913,354,1491
32400,-1103,880,2171,1936,-286,2144
32410,-389,-3043,633,202,-767,1904
32420,800,-6242,-34,206,-711,1935
32430,980,-6893,152,969,-533,1753
32440,714,-5465,530,1637,-532,1485
32450,763,-4727,819,1768,-696,1287
32460,1512,-4937,486,1391,-824,867
32470,1887,-5038,462,786,-691,1171
32480,2103,-4617,-64,-371,-596,1098
32490,3103,-5086,-829,-1393,-580,794
32500,3587,-6047,-1278,-1817,-686,523
32510,3646,-6301,-2048,-1808,-853,161
32520,4200,-5428,-2503,-1722,-941,-312
32530,4372,-4082,-2560,-1303,-863,-677
32540,4388,-3385,-1940,-436,-718,-894
32550,4215,-3459,-1785,185,-444,-1071
32560,4659,-3382,-1603,612,-12,-1342
32570,4385,-3513,-721,618,273,-1489
32581,4053,-4404,79,-374,167,-1638
32591,5979,-6045,371,-1113,440,-1047
32601,6817,-8907,-1877,-716,878,19
32611,6793,-12661,-3025,1003,1623,1125
32621,2386,-12476,-1153,-47,178,2138
32631,2360,-3514,-3555,-395,-595,2017
32641,2403,-4715,-3154,-1292,-2442,3707
32651,6186,-8175,-6606,-3772,-2198,4392
32661,7016,-10184,-5750,-2565,-2140,4169
32671,6873,-7800,-1821,-1318,-1316,5453
32681,6244,-9639,564,-614,-1350,6498
32691,5825,-9703,1473,-216,-1320,7185
32701,6230,-10600,1529,284,-1416,8114
32711,6401,-11819,2568,674,-1593,8810
32721,7176,-10585,1996,754,-1842,9176
32731,7698,-9746,1851,951,-2078,9694
32741,7991,-9083,1095,978,-2285,9825
32751,8674,-7595,2,1076,-2427,9906
32761,9454,-6270,-712,1231,-2599,10033
32771,10992,-5093,-1557,1387,-2981,10088
32782,11118,-5750,414,2297,-3243,10650
32792,12526,-3978,-780,1719,-3529,9927
32802,13940,-2375,-250,1955,-4023,9003
32812,15342,-657,-1797,1993,-4199,8078
32822,16046,1140,-3199,2419,-4910,7203
32832,16977,4486,-4556,2345,-5033,6234
32842,18989,9147,-3188,2539,-5020,5981
32852,18994,10383,-1401,3440,-6348,6898
32862,18331,9242,-508,3786,-7352,7005
32872,20718,10103,-672,4601,-7299,6050
32882,22809,12452,54,5669,-6969,5234
32892,21229,15074,1094,6596,-6826,4408
32902,17848,17065,2468,7025,-6703,3193
32912,14534,18112,1861,7128,-6825,2182
32922,12794,19629,940,6639,-6905,318
32932,13491,19802,202,5495,-7175,-2163
32942,16432,19796,465,3591,-7825,-4286
32952,20554,17453,-1621,728,-9160,-6567
32962,26983,10648,-3390,-1827,-9813,-9493
32972,-32768,6172,-1037,-4241,-10437,-12455
32983,-32768,1501,2601,-7765,-10654,-15509
32993,-32768,-5553,7667,-12228,-10153,-18412
33003,-32768,-12598,7070,-18426,-8713,-21480
33013,-32768,-19004,852,-25195,-5537,-23577
33023,-32768,-20271,-8430,-32766,-1413,-24325
33033,-32768,-18624,-27009,-32767,2236,-22614
33043,-32768,-20506,-32768,-32767,6851,-16110
33053,31885,-27809,28435,-32767,17567,-8779
33063,-7468,18370,-439,-19273,5552,-3825
33073,26441,6400,-32768,-25633,-24,-7495
33083,11089,-14320,-7497,-16388,-1335,697
33093,5553,7653,10771,-12747,7878,-3918
33103,11883,7408,386,-15106,-631,-5266
33113,15015,2249,-5408,-12256,-19,-3860
33123,9227,3957,276,-12912,-2527,-4198
33133,13103,2225,-7234,-13366,-4299,-3219
33143,12440,686,-11841,-12526,-5237,-2198
33153,27010,99,-22576,-5674,1039,-2974
33163,-6499,-19176,-8809,-5221,-8186,4459
33173,6868,2672,-4626,-4137,-5326,-1844
33183,-1877,3815,1643,-5512,-6773,1515
33194,-893,577,-5257,-5156,-7011,596
33204,-1187,-1489,-3763,-3235,-6071,1184
33214,-762,-1017,-3621,-2351,-5055,772
33224,-202,-2642,-3799,-284,-3845,962
33234,-739,-3537,-3006,1395,-2815,925
33244,-867,-3188,-3263,2534,-2037,491
33254,-457,-2626,-3116,3429,-1567,567
33264,-801,-1570,-3178,4128,-937,359
33274,-904,-1149,-2821,4553,-675,263
33284,-996,-1197,-2490,4680,-565,206
33294,-910,-1678,-2263,4907,-443,27
33304,-798,-2274,-1970,5199,-267,-154
33314,-735,-2881,-1949,5838,-90,-214
33324,-768,-3530,-1425,6676,-31,-296
33334,-833,-4084,-49,7493,-198,-441
33344,-405,-4042,655,8175,-367,-490
33354,556,-2666,1084,8673,-40,-278
33364,1572,-333,1561,8548,848,-101
33374,1785,1842,2931,6891,1517,63
33384,558,3161,3085,3354,1654,465
33394,143,2192,1866,269,772,-120
33404,1624,-412,2170,-1969,839,-610
33414,1973,-3493,1115,-2415,956,-1145
33424,2645,-5135,165,-2031,722,-1419
33434,2608,-4411,-292,-2083,568,-1096
33445,2696,-2346,-475,-2251,803,-1571
33455,3033,-847,117,-2673,1236,-1616
33465,2639,-1477,184,-1911,1288,-1119
33475,2276,-2881,-959,-594,782,-826
33485,2210,-3664,-2736,898,247,-846
33495,2795,-3790,-3998,2401,-91,-950
33505,3659,-3577,-4221,3581,79,-683
33515,4099,-2849,-3766,3746,542,-482
33525,4372,-1988,-3971,3844,645,-398
33535,4525,-1926,-3738,3922,788,-127
33545,3973,-2204,-2785,3039,1345,90
33555,2883,-2325,-2225,2144,1783,20
33565,2263,-2617,-2018,1959,1864,39
33575,1886,-2801,-1628,1724,1897,229
33585,1869,-2996,-1623,1744,1948,301
33595,1930,-3259,-1208,1729,2192,361
33605,1818,-3124,-871,1542,2510,344
33615,1505,-2931,-252,1389,2793,210
33625,1081,-3288,639,1184,2971,150
33635,319,-4118,1190,1225,2797,156
33645,-158,-4703,751,1472,2413,-9
33655,-4,-4361,-46,1957,1929,-329
33665,507,-3291,143,2223,1746,-374
33675,702,-2400,294,1587,1759,-310
33685,478,-2086,-398,667,1852,-396
33696,536,-2848,-562,274,1990,-506
33706,388,-4085,373,-655,2044,-535
33716,289,-4784,-61,-1547,2040,-937
33726,452,-5092,126,-1501,2122,-1112
33736,329,-5265,155,-1336,2039,-1284
33746,456,-5298,76,-679,1818,-1408
33756,566,-5253,138,-140,1615,-1455
33766,659,-5065,397,-119,1450,-1519
33776,678,-4791,449,-307,1375,-1696
33786,737,-4625,369,-455,1351,-1819
33796,879,-4274,773,-754,1324,-1720
33806,959,-3972,354,-398,1321,-1539
33816,938,-3854,472,84,1358,-1311
33826,922,-3870,642,350,1336,-1096
