t_ms,ax,ay,az,gx,gy,gz
0,-258,-1,3955,12,-98,-127
10,220,179,3898,124,-65,-134
20,-196,409,3945,132,-87,-97
30,-184,409,3977,36,-228,-166
40,72,68,3882,1,-267,-257
50,270,76,3806,171,-212,-217
60,507,384,4051,199,-234,-63
70,569,501,4153,23,-285,83
80,686,423,4154,-96,-233,126
90,730,315,4129,-162,-144,123
100,804,282,4097,-210,-63,124
111,741,220,4083,-250,2,127
121,721,247,4027,-273,44,133
131,655,313,4047,-312,73,171
141,619,348,4072,-371,103,239
151,553,340,4122,-469,129,280
161,313,306,4092,-553,157,255
171,-49,206,3989,-549,87,88
181,-183,167,3909,-468,-28,-76
191,141,77,3921,-354,-121,-205
201,236,53,3917,-251,-170,-227
211,281,10,3966,-141,-213,-241
221,337,182,4017,-56,-247,-209
231,418,231,4100,-66,-260,-149
241,419,164,4116,-93,-266,-99
252,484,168,4087,-105,-257,-64
262,496,213,4111,-130,-233,-45
272,501,232,4112,-188,-218,-40
282,514,174,4121,-240,-192,-52
292,501,111,4132,-265,-162,-79
302,477,124,4123,-258,-138,-126
312,485,198,4039,-243,-114,-162
322,421,371,4015,-198,-82,-174
332,265,362,3946,-135,-73,-218
342,195,319,3960,-45,-116,-252
352,318,145,4074,-119,-242,-290
362,519,16,4090,-202,-288,-320
372,513,16,4083,-211,-275,-276
382,379,50,3997,-136,-218,-277
392,226,122,3994,-14,-233,-232
403,50,306,3997,115,-284,-196
413,-1547,-2444,4037,134,-268,-349
423,306,-30,2776,172,-374,-632
433,-455,693,3903,846,-1128,125
443,298,200,3998,678,-794,-268
453,-198,614,3832,402,-1149,427
463,-1057,963,3688,354,-1419,1975
473,1853,1417,4641,439,-1238,917
483,1391,-381,4490,-96,-809,402
493,1636,-736,4311,-116,-499,212
503,1513,-257,4460,-111,-385,33
513,1396,-211,4608,-131,-438,-86
523,1231,-209,4580,-160,-391,-156
533,1189,-42,4569,-123,-395,-148
544,1462,-51,4526,-122,-458,-186
554,1518,21,4474,-142,-440,-80
564,1669,51,4522,-196,-366,15
574,1461,185,4589,-332,-236,-22
584,1242,86,4499,-484,-40,-350
594,905,-347,4401,-538,92,-449
604,721,-536,4218,-495,155,-161
614,528,-970,4053,-369,250,-31
624,958,-891,3948,-22,326,-16
634,929,-934,3795,323,484,18
644,1692,-1305,3779,804,827,-389
654,1928,-2001,3897,1095,866,-501
664,1718,-1489,3848,1476,808,-659
674,1241,630,4311,1499,635,-505
685,99,1953,4241,769,256,429
695,-88,2130,4149,-219,-542,1839
705,1306,1117,4211,-676,-603,2299
715,1843,-528,3865,-543,-98,1692
725,1444,-682,3841,-194,-111,1284
735,1637,-590,4026,-120,-102,813
745,1524,-357,3850,-22,-54,438
755,1434,-18,3888,71,-84,130
765,1829,266,4124,58,-223,-138
775,1984,240,4337,-37,-343,-445
785,2181,-110,4503,-98,-464,-785
795,2368,-210,4694,-83,-490,-1396
805,1916,-806,4657,-141,-329,-1840
815,1274,-1157,4456,-11,-188,-2204
826,2150,-2682,4026,379,459,-3678
836,48,-1007,3671,904,120,-2338
846,555,250,3928,938,-230,-1712
856,3558,1770,3909,368,-305,-733
866,3335,1269,3425,-241,26,414
876,1958,137,3460,-249,495,93
886,250,-539,3346,-237,698,64
896,271,-673,3324,-126,383,-485
906,482,-404,3339,322,98,-638
916,1292,-353,3717,441,-101,-585
926,1641,-222,3688,403,-81,-388
936,1467,78,3760,411,61,-271
946,1717,291,3756,328,96,-292
956,706,308,3894,331,96,-51
966,1451,274,3904,298,129,-110
977,1173,300,3834,356,-28,-248
987,1851,-22,3846,333,64,50
997,1130,451,3715,505,69,-43
1007,1168,474,3867,505,327,138
1017,1194,671,3825,405,100,-12
1027,851,670,3670,351,282,107
1037,906,446,3738,382,23,-40
1047,1054,243,3665,288,45,-37
1057,1184,85,3616,360,31,18
1067,1164,65,3619,417,64,39
1077,1045,105,3625,444,47,110
1087,1058,228,3664,397,30,81
1097,726,496,3591,355,31,62
1107,437,608,3635,369,-8,-199
1117,526,-27,3978,148,-264,-64
1127,-217,-266,2837,69,-474,81
1137,3382,189,4999,425,285,189
1147,2420,287,1700,312,23,276
1157,1018,584,4173,273,6,433
1167,872,580,3739,209,-26,349
1177,956,463,3792,163,-81,351
1187,1283,410,3780,109,-60,362
1197,1344,448,3768,115,-7,466
1208,1013,643,3855,146,13,447
1218,963,705,3849,114,-31,370
1228,1114,680,3821,55,-111,325
1238,1229,616,3848,44,-127,329
1248,1285,530,3786,46,-106,357
1258,1330,472,3745,61,-79,506
1268,1225,576,3782,61,-50,495
1278,1222,587,3749,55,-41,513
1288,1263,527,3751,43,-31,518
1298,1133,550,3798,45,-29,461
1308,1174,519,3827,31,-21,464
1318,1320,450,3876,24,-29,498
1328,1300,546,3964,-5,20,508
1338,1261,455,3912,-22,56,490
1348,1201,336,3920,16,37,524
1358,1116,415,3883,34,8,514
1368,1157,581,3860,58,-69,515
1378,1294,700,3879,40,-54,479
1388,1284,590,3836,-36,-11,496
1398,1261,354,3777,-57,-12,586
1408,1255,354,3746,4,3,600
1418,1368,396,3802,16,67,593
1428,1250,455,3801,28,95,602
1438,1261,570,3888,-1,121,549
1448,1253,608,3857,-31,125,527
1458,1285,639,3842,-13,114,513
1468,1232,690,3887,5,107,505
1478,1240,740,3881,-2,81,490
1488,1205,754,3879,-42,81,467
1498,1285,680,3884,-75,49,431
1508,1397,635,3874,-132,63,392
1518,1363,435,3808,-135,80,364
1528,1358,341,3777,-92,76,341
1538,1314,461,3748,-48,71,330
1548,1214,555,3749,2,35,362
1558,1118,621,3746,21,-15,390
1568,1156,567,3734,9,-95,403
1578,1315,383,3778,37,-110,408
1588,1310,314,3822,55,-99,406
1598,1221,357,3823,67,-74,331
1608,1399,212,3873,71,-68,250
1618,1459,193,3850,21,-21,267
1628,1561,240,3705,42,46,279
1638,1660,666,3709,210,193,383
1648,1628,783,3850,205,294,496
1658,1704,788,3755,84,268,685
1668,1669,734,3719,90,346,760
1678,3032,936,3527,94,315,658
1688,1139,832,3712,79,329,750
1698,1106,625,3782,-25,238,752
1708,1025,644,3871,-36,216,726
1718,948,783,3878,-81,217,653
1728,824,564,3871,-145,137,536
1738,835,531,3849,-135,65,423
1748,805,475,3912,-120,6,332
1758,813,379,3965,-100,-88,221
1768,856,331,4052,-104,-150,76
1778,902,360,4057,-99,-190,-65
1788,887,413,4155,-115,-211,-211
1798,1109,440,4115,-191,-249,-276
1808,1253,447,4091,-239,-272,-264
1818,531,302,4247,-265,-244,-114
1828,1538,326,3965,-223,-271,-161
1838,1393,344,3992,-140,-198,-111
1848,1414,422,3941,-88,-165,-80
1858,1415,344,3919,-61,-167,-63
1868,1440,283,3829,35,-228,-66
1878,1503,376,3830,73,-182,-52
1888,1405,496,3805,78,-142,-23
1898,1391,506,3809,69,-127,-31
1908,1382,413,3807,63,-103,-37
1918,1421,401,3801,79,-69,-59
1928,1426,515,3860,69,-42,-68
1938,1351,608,3893,22,-25,-81
1948,1085,806,3772,28,-78,-114
1958,1445,379,4122,11,-7,-35
1968,1432,302,3878,-78,50,27
1978,1373,493,3926,-90,83,29
1988,1400,420,3883,-144,98,-13
1998,1231,434,3778,-157,128,-62
2008,1153,310,3785,-122,83,-72
2018,1232,246,3771,-126,55,-65
2028,1131,285,3794,-137,38,-31
2038,1114,269,3813,-123,-13,-72
2048,1173,291,3862,-118,-6,-85
2058,1210,328,3921,-139,34,-78
2068,1394,314,3978,-180,99,-18
2078,1205,278,3991,-264,178,-24
2088,1206,248,4005,-339,223,-42
2098,1143,166,4018,-413,244,-54
2108,1005,-19,3960,-400,187,-77
2119,1029,-22,3955,-291,107,-125
2129,1061,35,3987,-175,51,-131
2139,1172,97,4064,-115,56,-143
2149,1025,63,4005,-141,87,-116
2159,1033,76,3984,-150,93,-148
2169,1103,110,3983,-183,132,-163
2179,1032,175,3860,-205,157,-162
2189,1011,171,3815,-186,134,-155
2199,1028,149,3780,-148,127,-144
2209,1106,145,3729,-119,147,-120
2219,1000,296,3657,0,139,-117
2229,1085,302,3815,53,123,-69
2239,1037,113,3919,-18,163,11
2249,957,128,3915,-45,162,17
2259,947,179,3985,-61,125,26
2269,910,147,4039,-56,84,20
2279,922,-3,4119,-28,24,-41
2290,992,-24,4173,-91,-14,-59
2300,979,-33,4252,-108,-12,-118
2310,1124,-92,4323,-136,-19,-143
2320,1144,-169,4289,-136,-29,-167
2330,1084,-134,4212,-116,-24,-205
2340,1290,10,4176,-137,11,-212
2350,1243,80,4179,-235,85,-459
2360,1180,182,4045,-244,96,-407
2370,1177,148,4048,-268,51,-398
2380,1211,204,3941,-283,76,-373
2390,1128,277,3866,-220,29,-291
2400,1182,365,3867,-181,-4,-253
2410,1158,402,3859,-174,5,-209
2420,1088,334,3836,-159,-8,-189
2430,1009,287,3820,-163,-24,-171
2440,988,310,3818,-159,-50,-178
2450,1036,383,3816,-142,-39,-198
2461,1009,431,3842,-136,-41,-210
2471,1000,399,3873,-173,-71,-193
2481,1052,319,3945,-190,-96,-196
2491,1120,241,4017,-185,-133,-249
2501,1134,207,4003,-216,-102,-183
2511,1105,170,3959,-189,-87,-227
2521,1195,119,3954,-158,-99,-168
2531,1160,76,3944,-107,-96,-123
2541,1160,109,3926,-72,-93,-105
2551,1089,110,3967,-54,-75,-140
2561,1242,32,3938,-50,-67,-165
2571,1155,78,4009,-78,-29,-180
2581,1280,96,3939,-59,0,-127
2591,1260,125,3997,-75,96,-201
2601,1339,143,4029,-123,129,-217
2611,1408,159,4040,-234,195,-388
2622,1162,174,3944,-201,379,-437
2632,809,176,3868,-138,333,-340
2642,991,284,3897,-164,39,-321
2652,1056,431,3937,-125,127,-386
2662,984,396,3849,-36,43,-285
2672,1173,430,3847,23,-18,-301
2682,1131,394,3909,28,13,-329
2692,1285,468,3994,-14,98,-349
2702,1218,534,3916,-33,130,-315
2712,1257,640,3833,28,198,-274
2722,1209,743,3838,85,224,-263
2732,894,754,4004,72,270,-304
2742,755,691,3976,85,237,-426
2752,405,758,4030,76,182,-566
2762,-550,787,4241,89,-84,-1187
2772,-310,589,3737,171,-912,-1688
2782,2351,236,4260,94,-909,-799
2793,2759,-12,4082,52,-494,-328
2803,2328,-234,3771,100,156,-384
2813,1715,-220,3725,194,525,-478
2823,544,-242,3769,391,578,-145
2833,163,-113,3965,416,276,-197
2843,554,140,4069,452,89,-343
2853,1116,621,4282,225,62,-266
2863,1051,489,3935,124,53,-5
2873,1107,-194,3821,242,119,-102
2883,1106,-242,3812,363,203,-39
2893,978,194,3998,441,212,25
2903,891,666,4057,358,191,-6
2913,931,683,3941,308,188,-10
2923,1074,451,3880,294,180,-18
2933,1407,196,3875,277,167,36
2943,1254,579,3816,322,322,59
2953,801,775,3934,389,375,89
2964,859,745,3964,273,266,69
2974,1009,722,3956,270,270,82
2984,1008,651,3985,306,314,137
2994,1040,630,4044,281,338,167
3004,950,577,4016,246,363,215
3014,820,515,4106,237,330,188
3024,745,443,4189,244,281,130
3034,762,470,4273,200,189,67
3044,928,518,4324,105,86,42
3054,881,658,4144,66,49,-2
3064,1608,908,4454,280,11,-42
3074,1351,-124,4409,-86,242,224
3084,1250,-387,4173,-20,412,66
3094,901,-5,4013,69,343,25
3104,673,354,3900,148,359,93
3114,579,480,3763,144,294,109
3124,716,421,3729,165,243,110
3135,893,308,3852,174,278,68
3145,905,275,3878,137,362,112
3155,772,390,3857,107,350,183
3165,704,466,3891,110,312,237
3175,666,424,3948,83,283,240
3185,625,313,3968,47,256,227
3195,546,220,3976,1,232,195
3205,479,227,3880,10,244,138
3215,497,165,3805,71,239,66
3225,633,103,3814,180,255,-9
3235,507,123,3814,276,357,-76
3245,324,402,3896,327,315,-188
3255,105,499,3989,270,329,-227
3265,120,515,4079,160,239,-199
3275,238,508,4130,12,116,-135
3285,237,409,4045,-61,2,-44
3295,362,480,4043,-59,-80,27
3305,518,651,4105,-25,-174,-177
3315,-218,1093,4045,-34,-62,-474
3325,613,127,4043,18,-175,-506
3335,967,-201,4081,162,-5,-471
3345,863,-77,4040,281,309,-455
3355,292,628,3980,329,352,-327
3365,144,873,4059,254,283,-136
3375,242,719,4099,96,249,8
3386,188,705,4070,2,184,122
3396,189,674,4136,-102,67,255
3406,289,521,4151,-230,3,330
3416,303,498,4183,-291,-18,383
3426,311,474,4135,-348,-26,429
3436,366,414,4102,-370,-7,480
3446,300,491,4038,-295,17,450
3456,319,480,4047,-273,-98,494
3466,854,260,4071,-280,-143,348
3476,372,498,3948,-234,-85,284
3486,508,446,4000,-244,-199,240
3496,543,438,4001,-242,-177,236
3506,557,450,4053,-223,-157,195
3516,580,433,4079,-218,-159,164
3526,613,373,4128,-214,-135,120
3536,706,253,4138,-192,-71,83
3546,704,224,4136,-128,27,61
3556,635,303,4167,-74,89,23
3566,433,372,4142,-42,111,29
3576,358,454,4100,-42,67,33
3586,375,418,4094,-64,20,48
3596,430,354,4099,-68,12,61
3606,399,318,4068,-44,29,78
3616,356,373,4038,-28,3,102
3626,384,393,4037,-38,-23,115
3637,460,357,4036,-47,-26,124
3647,479,348,4034,-46,5,130
3657,440,358,4039,-52,5,141
3667,428,365,4051,-52,-8,149
3677,422,389,4039,-64,-4,148
3687,400,397,4018,-70,-24,148
3697,650,306,4066,-85,-38,114
3707,702,127,4039,-50,118,59
3717,490,125,4015,26,240,72
3727,302,409,3999,27,174,127
3737,255,545,4022,-21,92,128
3747,305,456,3990,-92,45,116
3757,404,299,3975,-116,15,124
3767,471,254,3946,-100,13,146
3777,467,254,3907,-99,32,182
3787,732,177,3955,-75,38,157
3797,738,7,4029,-4,265,127
3807,467,155,3974,81,327,190
3817,279,508,4052,88,272,184
3827,209,598,4080,10,204,166
3837,253,510,4081,-79,115,161
3847,322,400,4095,-126,65,168
3857,323,334,4069,-129,48,152
3867,285,380,4032,-127,10,165
3877,265,432,4019,-120,-36,162
3888,258,456,4031,-138,-112,174
3898,301,434,4018,-160,-188,174
3908,441,366,4014,-166,-243,180
3918,542,290,4023,-166,-234,168
3928,620,196,4041,-141,-196,142
3938,708,108,4041,-119,-132,117
3948,767,45,4090,-66,-3,92
3958,608,123,4083,-7,108,100
3968,412,317,4110,11,71,109
3978,385,417,4089,-20,34,116
3988,393,366,4102,-55,1,128
3998,454,293,4110,-89,-27,146
4008,494,258,4109,-99,-36,159
4018,494,243,4077,-83,-27,145
4028,487,275,4076,-72,-27,127
4038,448,295,4014,-42,-43,107
4048,480,310,4018,-10,-42,90
4058,499,345,4025,-7,-40,89
4068,500,332,4021,-10,-31,103
4078,521,336,4043,-23,-27,119
4088,509,324,4033,-46,-28,135
4098,519,299,4078,-51,-28,138
4108,545,230,4107,-32,-27,133
4118,572,192,4129,-2,-28,114
4128,543,223,4143,3,-32,99
4139,516,234,4099,3,-30,82
4149,517,256,4086,16,-40,82
4159,548,304,4086,-11,-46,81
4169,548,314,4066,-31,-46,87
4179,573,310,4044,-26,-41,86
4189,606,300,4053,-25,-42,103
4199,627,321,4051,-15,-25,114
4209,633,297,4066,4,1,108
4219,637,317,4074,8,13,110
4229,593,387,4054,2,18,118
4239,551,378,4045,-4,12,122
4249,521,362,4019,-4,8,135
4259,584,355,4014,-12,-29,138
4269,634,294,4048,-24,16,100
4279,581,212,3992,-2,53,119
4289,547,338,4007,43,17,136
4299,500,335,4016,28,18,115
4309,549,239,3991,-6,4,121
4319,597,214,3984,1,19,141
4329,585,263,3993,14,48,152
4340,537,294,4008,7,42,154
4350,549,315,4018,7,21,157
4360,527,296,4067,-10,6,134
4370,530,235,4078,-25,-5,133
4380,560,207,4062,-5,7,121
4390,550,220,4042,14,18,102
4400,508,260,4042,14,5,101
4410,575,287,4021,8,9,92
4420,603,227,4026,9,29,71
4430,607,174,4001,49,90,70
4440,585,316,3991,99,101,97
4450,680,386,4066,87,91,45
4460,620,190,4059,114,261,24
4470,454,292,4048,148,178,81
4480,441,475,4099,97,103,99
4490,422,478,4017,66,106,70
4500,545,404,3929,105,100,37
4510,663,354,3953,189,145,7
4520,503,628,3980,295,286,-154
4530,591,356,4094,288,277,-296
4541,501,125,4121,208,168,-250
4551,472,207,4121,193,153,-164
4561,394,380,4231,186,132,-119
4571,393,345,4240,54,106,-65
4581,437,230,4243,-13,116,0
4591,435,337,4185,-35,154,78
4601,263,474,4151,-59,141,203
4611,346,456,4055,-58,98,360
4621,186,449,4012,-60,104,470
4631,251,568,3998,-116,-33,611
4641,506,445,3979,-146,-102,523
4651,645,264,3986,-103,-26,475
4661,685,231,4026,-76,22,425
4671,572,276,4012,-22,86,285
4681,480,117,4070,-3,151,136
4691,524,84,4181,-54,175,78
4701,517,346,4215,-146,242,103
4711,-677,557,3799,-170,118,-145
4721,-2642,803,3411,508,-644,-1847
4731,1223,1362,4296,358,-998,-940
4742,2164,1128,4355,-141,-735,-118
4752,1906,138,4255,-252,-162,44
4762,877,-334,3820,-76,236,95
4772,99,-73,3892,149,126,110
4782,23,440,4100,176,-53,108
4792,450,571,4168,129,-109,10
4802,807,425,4214,81,-79,17
4812,713,373,4179,78,-18,29
4822,643,419,4180,43,-21,-56
4832,535,564,4092,20,-39,-100
4842,480,571,4046,2,-77,-81
4852,535,525,4004,-24,-102,-73
4862,580,421,4010,-27,-101,-36
4872,439,-274,3893,-112,-366,328
4882,184,458,3914,21,-578,442
4892,800,855,4198,150,-377,-98
4902,1085,602,4236,-7,-180,-6
4912,985,212,4165,-45,-133,136
4922,821,-33,4170,30,-10,68
4932,733,113,4196,110,47,45
4943,617,442,4192,135,32,86
4953,535,636,4200,101,39,97
4963,465,642,4204,30,35,105
4973,438,464,4176,-2,21,114
4983,529,197,4147,46,-11,112
4993,526,137,4096,110,25,104
5003,657,227,4161,159,38,128
5013,521,370,4109,147,107,193
5023,417,413,4126,97,50,169
5033,517,359,4058,109,56,169
5043,576,248,4047,60,46,171
5053,577,273,3896,76,88,197
5063,435,186,3931,161,118,297
5073,517,-10,3883,156,75,351
5083,534,197,3919,455,303,298
5093,271,427,4079,388,323,332
5103,326,391,4104,226,239,209
5113,805,-27,3698,112,213,116
5123,1759,-118,5210,287,214,369
5134,-2505,-764,4917,-408,1532,132
5144,1930,3099,3783,695,-372,448
5154,1050,1259,4580,-150,1357,870
5164,750,636,3721,-298,1626,1062
5174,1276,-553,4104,-417,1924,1520
5184,-343,-1486,3276,-509,1829,1752
5194,-512,-1143,3613,90,1513,1298
5204,-1093,711,3813,328,1604,1002
5214,-1358,2387,4056,307,1362,405
5224,-1023,1997,3863,35,883,188
5235,-720,1244,3745,-113,445,264
5245,-488,821,3895,-152,206,299
5255,-272,884,4075,-235,-1,367
5265,-115,755,4114,-362,-187,477
5275,-40,299,3954,-325,-372,645
5285,60,-200,3886,-128,-429,844
5295,14,-236,3928,117,-478,971
5305,-152,-100,4063,289,-590,969
5315,-173,360,4216,323,-696,779
5325,-271,914,4371,112,-644,491
5336,-272,959,4361,-242,-462,216
5346,-279,711,4204,-514,-308,-81
5356,-98,526,4075,-645,-159,-469
5366,8,-437,4157,-505,25,-663
5376,344,162,3520,-170,-322,-747
5386,669,111,3902,151,-280,-631
5396,684,276,3985,247,-128,-467
5406,560,600,3945,190,-85,-293
5416,409,855,3928,124,-132,-133
5426,424,781,3984,42,-168,21
5437,235,590,3990,-2,-143,113
5447,218,346,4037,64,-178,98
5457,111,175,4055,68,-184,62
5467,152,194,4058,111,-266,31
5477,196,419,4134,121,-279,25
5487,168,627,4192,52,-270,32
5497,198,635,4173,-55,-322,46
5507,330,479,4160,-120,-345,80
5517,539,299,4098,-120,-314,140
5527,387,201,4008,-8,-267,169
5538,418,181,4054,86,-274,165
5548,333,315,4071,97,-224,127
5558,256,510,4043,117,-217,58
5568,268,563,4068,83,-239,86
5578,291,581,4061,34,-277,116
5588,276,574,4059,-10,-281,128
5598,265,484,4065,-48,-305,152
5608,327,452,4097,-95,-314,169
5618,463,463,4093,-136,-264,198
5628,453,387,4051,-116,-200,195
5639,708,187,3918,-58,-251,211
5649,1258,161,4106,-39,-164,571
5659,948,702,3985,-111,32,998
5669,745,1175,4013,-180,39,1218
5679,723,829,3988,-378,178,1294
5689,249,-332,3796,-576,387,982
5699,81,-1127,3596,-284,570,590
5709,167,-478,3882,127,741,363
5719,-344,531,3938,207,769,222
5729,-328,862,4119,185,348,226
5740,-348,813,4110,92,123,279
5750,-250,405,4179,-7,-97,217
5760,-150,334,4095,-43,-242,100
5770,-62,476,4068,-9,-342,-52
5780,47,708,4082,27,-420,-237
5790,32,1191,4002,-12,-526,-491
5800,249,589,4040,-130,-453,-491
5810,656,575,4023,-53,-543,-459
5820,906,338,4101,-36,-439,-318
5830,1024,-111,4090,-58,-307,-101
5841,1158,139,4024,-37,-278,-52
5851,1302,-383,4158,-75,-96,296
5861,903,216,3839,-60,-157,785
5871,560,519,4056,-68,-362,1251
5881,405,194,3986,-200,-200,1415
5891,366,-483,3862,-117,15,1286
5901,413,-225,3900,140,103,1163
5911,396,363,4104,176,182,927
5921,503,819,4144,14,339,527
5931,410,1013,4096,-114,491,401
5942,319,934,4012,-198,432,313
5952,580,777,4024,-185,356,188
5962,445,434,4051,-321,378,93
5972,175,300,3882,-299,269,-47
5982,130,-144,3926,-131,194,-280
5992,65,-60,3978,54,50,-444
6002,-77,-39,4074,208,-79,-623
6012,66,29,4111,355,-158,-778
6022,132,590,4255,485,-239,-821
6032,63,637,4786,286,-271,-742
6043,442,880,4315,16,-392,-706
6053,706,553,4270,-186,-425,-589
6063,859,272,4124,-252,-454,-429
6073,1010,-14,4027,-130,-364,-227
6083,1061,-105,4002,-9,-284,-57
6093,1042,97,4009,50,-226,88
6103,977,188,3954,54,-208,190
6113,1012,307,3779,143,-175,302
6123,787,502,3943,263,-168,220
6133,869,396,4225,141,-77,200
6143,833,292,4247,-103,219,147
6153,884,542,4148,-220,426,-8
6163,845,493,4098,-348,383,309
6173,274,386,4009,-453,179,515
6183,361,-148,3992,-404,116,377
6193,604,-464,3990,-247,278,245
6203,390,35,3947,-135,349,220
6213,321,634,3695,28,177,251
6223,372,513,3957,113,-124,492
6233,700,320,3962,76,-317,730
6243,1184,123,4113,84,-135,707
6253,316,367,4181,44,77,415
6263,235,250,4131,-54,40,206
6273,372,-198,4126,-43,147,3
6283,253,-262,4035,73,179,-167
6293,249,-53,4025,214,113,-306
6303,264,499,4076,300,67,-309
6313,306,880,4225,191,36,-246
6323,312,913,4244,-71,2,-151
6333,327,743,4118,-251,-63,-143
6343,219,214,4353,-253,-183,-129
6353,601,356,3836,-137,-264,-149
6363,816,168,4010,152,-215,-64
6373,917,305,4065,200,-197,-12
6383,817,339,4117,206,-174,67
6393,695,345,4109,150,-242,90
6403,558,182,4022,138,-304,-11
6413,714,161,3995,192,-317,-63
6423,702,317,4014,183,-267,-127
6433,825,585,3957,140,-207,-222
6443,911,823,3995,122,-76,-218
6453,100,1319,3897,262,-394,-769
6463,1295,85,4175,-87,-189,-350
6473,1543,-39,3989,-106,-170,33
6483,1168,112,4012,15,1,257
6493,491,541,4032,57,-8,393
6503,298,784,4117,-46,-167,245
6513,817,522,4114,-136,-228,45
6523,1468,101,4088,-141,-77,-14
6533,1608,14,4101,-82,159,141
6543,1148,333,4018,31,325,355
6553,475,657,3975,150,347,466
6563,123,877,4023,110,195,439
6573,154,961,3999,-17,-72,403
6583,489,863,4023,-59,-226,368
6593,779,783,4030,-74,-274,374
6603,951,774,4015,-102,-254,395
6613,1045,787,4030,-146,-221,403
6623,964,1083,3997,-265,-228,369
6633,1001,1146,3944,-357,-192,299
6643,1212,943,3882,-376,-66,194
6653,1265,586,3782,-311,59,218
6663,1166,502,3702,-169,141,283
6673,932,595,3700,-44,200,391
6683,618,727,3665,62,177,502
6693,511,775,3769,94,85,470
6703,660,713,3828,-23,-28,461
6713,885,440,3820,-98,-86,530
6723,945,337,3815,-169,-121,606
6733,902,-45,3758,-271,-185,860
6743,575,-127,3593,-258,-353,1154
6753,1218,3507,1337,384,-1571,851
6763,1744,179,3811,-1063,2632,2793
6773,305,-703,2984,-136,749,913
6783,1390,-635,3662,223,1337,974
6793,1442,188,3755,141,866,758
6803,277,367,3733,459,712,913
6813,374,798,4095,408,509,1016
6823,237,610,4102,103,199,1191
6833,206,175,4117,-88,24,1201
6843,678,-148,4571,-340,370,1204
6853,81,-239,4162,-455,420,1179
6863,-181,97,4229,-486,396,952
6873,14,360,4267,-554,261,717
6883,459,268,4270,-586,123,588
6893,819,-71,3964,-504,-10,470
6903,792,-594,3596,-249,-330,508
6913,653,261,3996,90,-532,366
6923,1012,575,3784,89,-556,191
6933,1397,257,3833,234,-607,233
6943,859,60,3789,268,-546,747
6953,545,-314,3867,233,-335,1032
6963,498,-820,3983,292,-2,967
6973,469,-670,4219,405,275,786
6983,325,-393,4507,275,599,556
6993,344,20,4557,70,910,362
7003,-108,682,4583,-53,834,327
7013,-252,756,4795,-408,782,342
7023,-55,522,4574,-732,538,276
7033,75,388,4437,-876,376,142
7043,652,49,4039,-775,368,280
7053,139,-167,3745,-486,-108,290
7063,-189,-416,4082,-240,-565,474
7073,423,-106,3760,-196,-1007,403
7083,953,-306,3821,-9,-1016,575
7093,539,-336,3932,79,-1043,1077
7103,268,-684,4119,155,-830,1246
7113,478,-1504,4266,158,-271,1302
7123,625,-1444,4367,266,137,1224
7133,582,-899,4643,214,592,1187
7144,82,-301,4555,-76,847,1070
7154,-314,-19,4396,-264,881,1002
7164,-542,115,4243,-365,857,1018
7174,-679,239,4174,-460,848,954
7184,-360,39,4008,-511,678,868
7194,-200,-243,3893,-368,569,857
7204,-147,-435,3839,-188,355,760
7214,-1349,-784,3854,-47,167,708
7225,-523,-371,3728,-6,-165,523
7235,-405,-524,3839,146,-473,480
7245,-206,-466,3875,153,-764,525
7255,83,-835,3940,197,-1078,714
7265,565,-1166,4114,259,-974,887
7275,442,-864,4082,228,-580,1136
7285,201,-1144,4178,227,-431,1191
7295,312,-523,4222,207,-282,1346
7306,646,-402,4276,158,-151,1698
7316,135,-131,4264,152,-248,1711
7326,164,-520,4417,-52,-76,1727
7336,-272,-677,4185,-111,194,1536
7346,-609,-1017,4084,-6,478,1279
7356,-590,-900,4040,252,505,951
7366,-742,-496,4180,378,546,719
7376,-644,-435,4186,358,498,521
7387,-594,-469,4220,337,503,378
7397,-316,-92,4267,325,481,344
7407,-181,159,4299,171,536,379
7417,-223,167,4306,-88,455,496
7427,-202,76,4156,-330,341,458
7437,-130,-916,3907,-393,308,694
7447,245,-613,3356,-202,47,757
7457,872,-1236,3747,270,-613,1254
7468,307,-863,3755,384,-606,1541
7478,39,-987,4089,468,-573,1513
7488,99,-657,4216,437,-296,1572
7498,-213,-778,4159,370,-112,1522
7508,12,-1144,4106,298,-106,1246
7518,282,-715,4169,319,-182,1360
7528,148,-424,4205,225,-243,1589
7539,315,-327,4152,192,-332,1733
7549,384,-543,4232,91,-38,1764
7559,403,-602,4141,115,349,2068
7569,-595,-341,4094,170,493,1879
7579,-867,-98,4208,186,388,1488
7589,-187,-385,4181,112,299,1218
7599,-354,-426,4124,127,409,1101
7609,-371,-312,4128,159,377,946
7620,-458,-132,4165,105,338,713
7630,-295,35,4171,15,199,452
7640,66,-158,4076,-61,84,275
7650,193,-398,4002,-72,-5,276
7660,717,-805,3918,41,-126,351
7670,1076,-1294,3649,112,-290,934
7680,649,-1091,3881,408,-567,1332
7690,230,-867,3782,322,-567,1579
7701,1337,-723,3575,273,-417,1398
7711,416,-1092,3858,289,-236,1654
7721,243,-758,3707,305,-415,1747
7731,353,-387,3852,307,-458,1583
7741,334,-373,3930,135,-301,1474
7751,305,-443,3799,53,-427,1538
7761,437,-400,3958,108,-289,1537
7771,197,-116,3922,113,-294,1396
7782,214,-328,3926,54,-176,1192
7792,98,-372,3896,128,-74,955
7802,-48,-315,4010,190,-48,790
7812,-77,-380,4063,217,-10,599
7822,42,-174,4116,215,16,453
7832,172,6,4163,124,12,364
7842,314,88,4223,-20,56,321
7852,409,-2,4237,-158,130,286
7863,414,-160,4148,-207,129,233
7873,401,-236,4041,-172,-3,230
7883,-780,-875,4397,-61,-119,558
7893,579,-390,3793,-31,-220,536
7903,948,-541,3873,134,-261,704
7913,854,-658,3801,366,-299,851
7923,592,-281,3932,519,-349,945
7934,417,-34,4091,498,-293,881
7944,440,81,4140,411,-193,759
7954,490,-32,4147,354,-150,641
7964,606,-93,4179,310,-155,625
7974,706,-19,4220,260,-157,622
7984,744,166,4273,177,-166,640
7994,780,280,4285,87,-140,661
8004,750,338,4285,3,-66,656
8015,736,401,4220,-42,-34,596
8025,839,303,4228,-43,-29,567
8035,780,117,4261,-11,-46,628
8045,625,-70,4255,86,-22,626
8055,502,168,4350,217,-32,597
8065,416,509,4389,215,-99,589
8075,385,559,4395,128,-166,558
8085,499,438,4334,36,-217,521
8096,642,393,4277,2,-255,512
8106,752,369,4261,-18,-278,508
8116,1004,413,4216,-44,-299,552
8126,1120,481,4092,-28,-267,658
8136,1038,396,4055,39,-195,677
8146,955,360,3951,100,-102,696
8156,700,653,3952,175,-32,619
8166,573,810,3988,186,82,492
8176,415,979,4033,149,83,356
8186,384,1039,4118,34,-48,229
8196,534,974,4242,-115,-163,161
8206,630,914,4265,-246,-238,111
8216,883,736,4255,-321,-320,110
8226,1018,571,4229,-339,-381,163
8236,1197,374,4224,-327,-355,248
8246,1162,351,4209,-262,-288,293
8256,1208,313,4141,-224,-193,291
8266,1218,255,4028,-128,-100,328
8276,1272,348,3926,-12,-90,382
8286,1522,436,3903,-20,-182,614
8296,1641,471,3728,-20,-271,1008
8306,1375,763,3593,13,-267,1303
8316,1511,773,3936,-6,-260,1782
8326,583,873,3716,-190,110,1571
8336,460,396,3599,-233,504,1022
8346,111,34,3448,-6,678,691
8356,183,608,3748,231,534,520
8365,177,1118,4088,123,366,368
8375,225,906,4104,-32,248,228
8385,287,534,4148,-44,149,83
8395,395,420,4231,-12,43,-21
8405,449,300,4257,0,40,-134
8415,318,234,4243,19,90,-326
8425,268,388,4133,75,67,-583
8435,365,497,4079,111,-6,-887
8445,338,704,4152,67,-186,-1166
8455,593,727,4015,-50,-318,-1376
8465,797,723,3918,-157,-398,-1421
8475,931,365,3908,-301,-425,-1391
8485,1141,414,3579,-104,-489,-1415
8495,1587,312,3648,23,-464,-1187
8505,1733,195,3725,123,-388,-870
8515,1504,187,3702,268,-357,-576
8525,1025,376,3870,359,-351,-471
8535,1153,517,3965,342,-213,-479
8545,1077,685,4051,292,-51,-426
8555,985,658,4089,163,21,-376
8565,949,614,4089,64,-16,-358
8575,-56,1577,4197,-22,129,-1452
8585,1089,292,3991,-327,-268,-1177
8595,1638,-36,3913,-400,-343,-859
8605,1526,-104,3741,-305,-169,-471
8614,939,104,3684,-66,-61,-215
8624,577,404,3871,-2,-76,-303
8634,320,77,3716,29,-209,154
8644,-113,652,3960,29,-1078,-143
8654,3105,708,4069,-83,-685,-646
8664,2480,205,4319,-274,187,-100
8674,769,-186,3729,-319,673,-60
8684,431,141,3617,-21,348,-120
8694,1142,466,4088,-12,163,-61
8704,1357,356,4141,-241,392,-23
8714,883,-426,3808,-333,416,11
8724,758,-72,3502,-7,291,-91
8734,716,492,3876,201,59,19
8744,1331,768,4234,10,2,281
8754,1089,923,4123,-358,226,588
8764,1430,1060,4153,-647,3,827
8774,664,236,3876,-823,-127,954
8784,106,-928,3490,-609,-114,179
8794,517,-901,3495,-71,-40,-279
8804,197,-20,3748,297,-6,-584
8814,276,302,3995,357,-13,-776
8824,443,306,4072,331,-84,-911
8834,623,531,4258,269,-151,-933
8844,747,716,4327,85,-170,-874
8854,878,763,4348,-111,-147,-747
8863,1013,618,4358,-237,-142,-604
8873,1063,463,4354,-276,-56,-598
8883,885,274,4263,-204,58,-762
8893,971,113,4203,-47,68,-905
8903,686,406,4181,74,98,-1059
8913,762,257,4114,23,32,-1052
8923,779,385,4136,110,-134,-986
8933,952,319,4067,17,-163,-900
8943,866,129,3997,-35,-190,-794
8953,1041,-2,3921,-41,-208,-723
8963,1090,-124,3847,84,-200,-589
8973,1512,80,4055,152,-85,-437
8983,1219,-40,4048,146,66,-246
8993,712,-261,4039,127,69,-175
9003,657,-276,4066,155,93,-238
9013,591,-78,3997,208,95,-298
9023,530,273,4013,231,57,-314
9033,470,541,4038,137,1,-320
9043,575,601,4031,-41,-27,-347
9053,600,447,3941,-217,-45,-342
9063,883,268,3815,-223,-96,-262
9073,927,128,3832,-134,-67,-138
9083,847,23,3938,-70,-3,-44
9093,715,49,3997,-59,149,92
9103,467,-72,3969,31,197,-23
9112,693,-46,4051,90,126,-1
9122,674,164,4055,82,65,83
9132,750,146,4113,-15,74,246
9142,650,324,3920,-90,-36,383
9152,609,324,3981,-120,-330,415
9162,710,513,3906,-294,-289,399
9172,638,165,3716,-324,-314,345
9182,455,-205,3860,-271,-268,379
9192,707,-435,3878,-218,-8,240
9203,597,-353,3947,-88,183,306
9213,668,-210,4097,35,305,352
9223,631,-265,4111,169,444,450
9233,407,-204,4195,300,496,360
9243,192,-524,4129,410,507,219
9253,64,-559,4015,658,520,117
9263,-198,-165,4078,851,476,-27
9273,-148,373,4170,909,199,-161
9283,-712,1622,4386,781,-115,-756
9293,-74,778,4257,315,-321,-838
9303,316,1180,4128,-14,-354,-963
9313,691,708,3956,-281,-583,-897
9323,1389,197,3882,-374,-201,-691
9333,-5,873,3982,-321,-135,-974
9343,-2206,1136,4004,-357,-173,-1813
9353,2395,-818,3766,-384,-931,-1307
9363,1711,-860,4123,-65,-364,-665
9373,184,-387,3903,300,284,-490
9383,-9,183,4274,467,74,-645
9393,462,585,4559,235,62,-641
9403,35,630,4448,-64,23,-628
9413,-44,547,4295,-279,-102,-784
9423,775,186,4160,-388,-207,-717
9433,961,226,4057,-387,-73,-346
9443,678,103,3931,-295,-1,-117
9454,807,16,3923,-130,-92,92
9464,977,-46,3909,-12,-201,379
9474,864,-268,4058,140,12,535
9484,-110,-232,3925,252,241,369
9494,-30,127,4059,416,216,98
9504,107,480,4285,364,225,15
9514,-63,570,4264,181,104,-115
9524,68,459,4241,9,-42,-258
9534,131,481,4219,-137,-109,-355
9544,353,384,4125,-279,-150,-409
9554,668,221,4032,-339,-135,-339
9564,880,131,3930,-257,-28,-188
9574,709,17,3969,-120,-25,9
9584,304,-107,3937,-64,-53,87
9594,360,-160,3941,53,-60,14
9604,630,130,3951,226,-11,-43
9614,258,227,4061,245,22,-20
9624,418,239,4150,158,-33,38
9634,417,159,4143,46,128,42
9644,435,19,4131,38,234,54
9654,450,264,4116,-31,204,148
9664,655,-66,4129,-183,87,314
9674,1016,123,3910,-278,94,769
9684,2154,723,3950,-216,10,1148
9694,730,-24,3868,-174,127,1275
9705,69,-195,3819,-44,249,1037
9715,97,-81,3774,144,463,660
9725,-457,219,3797,209,317,463
9735,47,504,4048,166,297,213
9745,-19,591,4100,3,385,163
9755,194,388,4091,-61,345,90
9765,94,209,4136,-33,334,6
9775,-112,211,4148,97,307,-159
9785,44,115,4150,207,226,-279
9795,-82,176,4238,297,227,-367
9805,-88,355,4214,386,203,-454
9815,-310,857,4316,333,-55,-464
9825,-349,938,4254,135,-481,-456
9835,343,890,4182,-91,-863,-520
9845,294,303,4016,-269,-998,-396
9855,301,434,3686,-355,-1032,-578
9865,970,173,3988,-167,-819,-646
9875,1961,-41,3945,-204,-660,-480
9885,-6382,3620,2720,-23,-530,-928
9895,1245,726,4787,-223,-916,-3432
9905,3998,-193,4337,-893,-1007,-2588
9915,2143,-350,3727,-1454,-1202,400
9925,1124,-948,3152,-512,-541,948
9935,335,-1186,3617,141,-134,491
9945,362,-431,3793,193,-145,234
9956,602,215,4117,113,-356,108
9966,909,327,4222,-95,-293,10
9976,1060,-126,3804,-123,-110,15
9986,896,-730,3852,107,61,41
9996,637,-758,3917,278,190,37
10006,673,-597,4122,472,309,-271
10016,756,-254,4208,461,439,-420
10026,589,187,4231,359,497,-336
10036,883,844,3388,414,255,16
10046,1715,1387,3564,1149,-423,1034
10056,1352,250,4560,827,408,1407
10066,949,-572,3613,-156,1794,391
10076,-1500,631,3950,157,1163,467
10086,-478,760,4050,65,782,145
10096,-135,1142,3864,198,187,132
10106,-153,1514,4033,371,-467,245
10116,106,1468,4032,369,-1092,470
10126,329,1607,4232,450,-1408,420
10136,285,710,4152,299,-1572,196
10146,276,10,3878,124,-1780,-103
10156,-278,-236,3830,245,-2039,21
10166,361,-287,3899,186,-2150,478
10176,1018,439,3647,609,-1740,1069
10186,1400,1368,3666,759,-1383,1469
10197,1235,1040,3593,636,-1215,1520
10207,1524,429,4024,308,-1078,1037
10217,1441,-626,4012,-117,-956,877
10227,1909,-809,3920,-268,-677,537
10237,1972,-43,3773,-494,-428,100
10247,1672,172,3775,-786,-233,-54
10257,1376,86,3835,-935,-179,-182
10267,1705,495,3940,-1073,-270,-509
10277,1706,644,4057,-1509,-203,-942
10287,953,177,4257,-2182,-53,-1378
10297,500,654,4439,-2963,-52,-1663
10307,1409,-58,2995,-3601,37,-2240
10317,5602,-1611,1826,-2661,5424,-2249
10327,1318,4184,805,-3522,2748,-3129
10337,611,2810,1609,-2470,1926,-613
10347,-1626,879,1038,-2426,245,-130
10357,-1165,68,145,-2057,-220,-1125
10367,-52,-300,-231,-1406,-731,-1856
10377,1125,123,-690,-1025,-1071,-2022
10387,1912,1078,-825,-436,-1025,-2234
10398,2916,1942,917,24,-678,-2537
10408,-236,2667,1718,-1059,-1490,-2241
10418,2138,2806,3104,-1652,-1459,-2375
10428,1384,954,925,-2149,-2129,-2827
10438,1965,-551,2112,-2438,-2618,-3029
10448,3600,-848,1952,-2238,-2655,-3070
10458,4663,-599,2095,-2069,-2301,-2886
10468,4397,-958,1632,-2274,-1969,-2457
10478,4327,-1351,3501,-2950,-1634,-2346
10488,1682,-1126,2133,-2146,-1489,-1410
10498,2164,-2705,4211,-2044,-930,-2099
10508,2839,-2623,4370,-2519,-1561,-1630
10518,2878,-2628,4300,-2721,-1240,-1689
10528,3347,-2795,4382,-2788,-1134,-1686
10538,3488,-2797,4624,-3208,-1055,-1382
10548,3358,-3070,4582,-3462,-768,-1114
10558,3210,-4343,4314,-3110,-427,-878
10568,2820,-5838,4808,-2616,-185,-756
10578,2432,-5353,5471,-2099,-18,-1228
10588,2763,-3093,6467,-1373,272,-1709
10599,2709,-1352,7051,-1293,454,-1473
10609,2473,-1013,6810,-2209,365,-1098
10619,2365,-2278,6063,-2689,318,-991
10629,2501,-4362,5197,-2403,414,-889
10639,2839,-5873,4591,-1476,454,-687
10649,3102,-6093,4822,-341,727,-478
10659,3066,-4831,5063,364,1090,-317
10669,2697,-3299,5409,703,1412,-44
10679,2049,-2412,5925,469,1577,291
10689,1463,-2043,5956,-145,1700,369
10699,1006,-1385,5346,-311,1664,326
10709,489,-1551,5655,-403,1497,589
10719,522,-1628,5382,-624,1288,654
10729,157,-1402,5297,-842,998,528
10739,160,-1366,5452,-1254,521,346
10749,-1,-1896,4860,-1555,4,314
10759,191,-3216,4408,-1423,-516,360
10769,806,-4175,4123,-966,-708,500
10779,943,-4775,3884,-298,-711,511
10789,685,-4269,3240,126,-778,466
10800,675,-2922,2866,370,-946,433
10810,677,-1911,1859,559,-978,708
10820,1002,-735,1126,540,-1149,893
10830,1692,406,567,572,-1070,1084
10840,1832,776,777,483,-930,1320
10850,1832,132,655,-138,-987,1600
10860,1806,-1638,651,-617,-1147,1890
10870,2125,-3841,421,-557,-1016,2199
10880,2509,-4637,943,-191,-538,2201
10890,2522,-3342,812,457,-93,1877
10900,2374,-1971,1599,1402,35,1779
10910,1956,-1273,2536,1984,22,1895
10920,1335,-474,2346,1918,-166,2114
10930,1256,-200,2026,1714,-525,2192
10940,1384,-669,2006,1286,-784,2246
10950,1558,-1201,1779,911,-925,2144
10960,1725,-1530,1723,816,-943,2019
10970,1917,-1568,1727,674,-1041,1914
10980,2106,-1493,1568,611,-1103,1791
10990,2301,-1479,1244,714,-1039,1694
11001,2406,-1585,1163,914,-885,1708
11011,2355,-1764,1287,994,-748,1750
11021,2343,-1994,1521,924,-688,1770
11031,2429,-2185,1549,745,-737,1738
11041,2605,-2462,1552,754,-839,1658
11051,2794,-2749,1642,805,-985,1591
11061,3068,-2840,1657,776,-1130,1459
11071,3318,-2772,1628,688,-1292,1342
11081,3446,-2650,1596,470,-1394,1273
11091,3442,-2687,1523,268,-1491,1244
11101,3443,-3142,1435,23,-1563,1247
11111,3386,-3628,1262,-1,-1615,1277
11121,3433,-3927,1409,243,-1608,1339
11131,3346,-3807,1703,402,-1584,1410
11141,3249,-3495,1945,348,-1698,1413
11151,3281,-3330,2016,233,-1944,1372
11161,3573,-3306,1836,234,-2117,1254
11171,3885,-3206,1659,225,-2235,1091
11181,3905,-3049,1502,165,-2362,922
11191,3836,-3108,1280,-8,-2357,778
11201,3682,-3776,829,35,-2347,605
11211,3554,-4346,1195,89,-2288,333
11222,3287,-3981,1513,141,-2281,116
11232,3073,-3627,1824,392,-2287,-90
11242,2802,-3311,1454,826,-2245,-219
11252,3570,-2347,175,1233,-2348,-1144
11262,3267,-1106,1299,603,-1948,-655
11272,1837,-884,1777,23,-1617,-407
11282,1759,-1267,1469,-475,-1757,-28
11292,3015,-1264,550,-111,-1666,-7
11302,3364,-1448,507,408,-1301,213
11312,2825,-1538,179,294,-1135,410
11322,2536,-1820,329,8,-935,658
11332,2118,-2095,412,-133,-736,843
11342,2145,-2273,1046,66,-484,922
11352,1855,-2548,1000,625,-195,1064
11362,1302,-2696,1213,1161,-116,1117
11372,865,-1406,972,752,-251,853
11382,630,-279,842,441,-165,683
11392,-277,-355,674,-276,-449,583
11402,-325,-797,-39,-931,-735,504
11412,-176,-1602,-295,-1262,-905,534
11422,1,-2042,-49,-1367,-927,463
11432,240,-2100,84,-1044,-811,525
11442,169,-2707,762,-790,-464,996
11452,-283,-4549,2194,-633,-455,1136
11462,-499,-4955,1780,-903,-421,967
11472,-423,-3241,1390,-1508,-437,887
11482,-91,-4433,1213,-1918,-494,1088
11492,216,-7006,520,-2250,-485,1393
11502,978,-8445,426,-2022,-97,1620
11512,1358,-8776,242,-1699,305,1931
11522,1442,-8884,531,-1574,713,2254
11532,1648,-9074,927,-1642,984,2524
11542,2025,-9557,2054,-1892,952,2668
11552,2067,-9703,1784,-1666,843,2829
11563,2811,-10358,1831,-1340,692,3279
11573,3498,-11829,1672,-964,747,3673
11583,4150,-12334,1711,-730,848,4004
11593,4785,-12689,1694,-494,958,4392
11603,5239,-12204,1747,-569,1086,4711
11613,5551,-11195,1895,-820,1008,5132
11623,6014,-11421,1612,-980,760,5392
11633,6619,-11083,1552,-772,383,5713
11643,6754,-10020,1934,-490,-192,6030
11653,7244,-9170,2125,-121,-804,6228
11663,7716,-8172,2489,478,-1372,6276
11673,8147,-6572,2872,1230,-1639,6260
11683,8241,-4801,3102,1669,-1739,6071
11693,8733,-3047,2908,2029,-1622,5760
11703,9289,-1535,2611,2228,-1518,5407
11713,9742,42,2549,2406,-1566,4911
11723,9877,1453,2435,2761,-1585,4359
11733,10095,2501,2047,2959,-1642,3899
11743,10704,3545,1060,3287,-1638,3417
11753,11785,4638,712,3547,-1554,2947
11763,12671,5301,-107,3932,-1505,2579
11773,13135,5429,233,4210,-1662,1940
11783,14159,6326,-42,4480,-1777,946
11793,15130,6563,-73,5082,-2046,73
11803,16221,5998,123,5187,-2339,-941
11813,18284,5361,385,5078,-2668,-2209
11823,20643,4445,676,4684,-3239,-3130
11833,22742,3289,272,4578,-3498,-4044
11843,23096,2125,-319,4035,-3970,-5440
11853,23683,3197,-2584,3117,-4540,-7897
11863,27200,6215,-5301,1277,-5642,-11221
11873,-32768,5681,-7138,-989,-6610,-13959
11883,-32768,1023,-6843,-3976,-7347,-16619
11894,-32768,-7831,-4947,-7507,-7525,-19392
11904,-32768,-18141,-3655,-11774,-6091,-22514
11914,-32768,-27231,-4110,-15737,-3541,-25503
11924,-32768,-29560,-6442,-19764,-362,-27683
11934,-32768,-24106,-12606,-23782,3679,-28505
11944,-32768,-11929,-14934,-27862,7679,-28681
11954,-32768,12000,24354,-29466,14826,-27289
11964,-32768,7302,-24017,7521,668,-5827
11974,-32768,-30318,-10247,-17749,20561,-15901
11984,-3126,-10760,10320,-1820,5994,-12465
11994,29872,32767,13230,-9852,13608,-18534
12004,-32768,8048,-6966,-17950,7100,-7608
12014,26841,-8305,-7305,-12863,6770,-6173
12024,30615,2772,-965,-9159,8686,-5762
12034,24427,1841,-1519,-8523,7483,-3321
12044,21798,-1067,-5851,-8080,6666,-2234
12054,19428,-2733,-7545,-7194,5544,-627
12064,16925,-4096,-6137,-5828,4743,854
12074,14185,-2788,-5137,-4804,3843,1625
12084,12905,-2231,-4820,-3945,2901,2378
12094,11496,-2235,-5310,-3100,1859,2957
12104,10555,-3110,-6210,-2004,1077,3331
12114,9527,-3134,-7133,-816,508,3602
12124,8208,-2672,-8005,363,274,3833
12134,7251,-3019,-8631,1675,448,4005
12144,5915,-2742,-8447,3199,782,4011
12154,4271,-1704,-7979,4400,984,4017
12164,2843,-629,-7168,5103,1226,4064
12174,1817,-206,-6377,5119,1315,4025
12184,966,-371,-5465,4679,1246,3888
12195,250,-717,-5131,4055,1077,3785
12205,-180,-1133,-4822,3228,900,3783
12215,-486,-1741,-4729,2446,741,3832
12225,-434,-2498,-4615,1900,537,3853
12235,-237,-3035,-5178,1602,521,3932
12245,-37,-3041,-5283,1141,566,3938
12255,72,-2566,-4762,779,615,3858
12265,-79,-1919,-4310,534,664,3849
12275,-338,-1617,-4091,241,568,3804
12285,-425,-1558,-3581,103,454,3678
12295,-402,-1140,-3155,71,362,3585
12305,-450,-256,-2622,-208,164,3565
12315,-560,680,-2419,-796,35,3390
12325,-777,1145,-2100,-1441,-203,3330
12336,-1378,1295,-1936,-2023,-449,3110
12346,-1667,1239,-1652,-2657,-861,2973
12356,-1898,1018,-1466,-3157,-1324,2833
12366,-1979,556,-1747,-3323,-1635,2597
12376,-2205,-114,-1021,-3282,-1924,2239
12386,-2298,-550,-356,-2829,-2032,1946
12396,-2496,-557,339,-2198,-2169,1773
12406,-2694,-288,1434,-1767,-2393,1675
12416,-2696,114,2414,-1507,-2568,1514
12426,-2483,561,3448,-1458,-2708,1320
12436,-2248,791,4403,-1544,-2764,1183
12446,-1937,912,4789,-1787,-2809,1029
12456,-1410,1016,4644,-2209,-2763,853
12466,-1036,734,4697,-2597,-2693,661
12476,-897,-156,4493,-2866,-2758,431
12487,-590,-1497,3895,-2775,-3090,230
12497,286,-2981,3382,-2407,-3402,201
12507,1285,-4085,4471,-2045,-3626,269
12517,2051,-3985,5334,-2052,-3561,258
12527,2035,-3430,5997,-2113,-3706,220
12537,2012,-3200,6137,-2589,-3661,384
12547,2036,-3297,6444,-3392,-3624,563
12557,1975,-3227,6048,-3902,-3504,531
12567,1945,-3390,5651,-4191,-3387,487
12577,2041,-3837,5001,-4434,-3415,495
12587,2318,-4483,4983,-4293,-3556,429
12597,2828,-5021,5625,-3548,-3608,410
12607,3110,-4887,6257,-2686,-3443,552
12617,3168,-3671,6491,-2514,-3131,643
12628,3195,-2652,6416,-2748,-2779,642
12638,3046,-2526,6193,-3220,-2573,692
12648,2895,-3071,5492,-3427,-2474,780
12658,2867,-3854,4757,-3184,-2441,836
12668,3056,-4163,4272,-2667,-2451,763
12678,3422,-3851,3860,-2227,-2376,653
12688,3695,-3191,3771,-2048,-2313,569
12698,3882,-2729,3745,-2191,-2313,525
12708,3977,-2447,3662,-2596,-2424,494
12718,4010,-2593,3343,-2918,-2612,504
12728,3925,-3030,2943,-3247,-2787,572
12738,3757,-3422,2229,-3535,-2922,600
12748,3626,-3675,1709,-3765,-3007,578
12758,3455,-3656,1539,-4016,-3210,509
12769,3799,-3410,1546,-3961,-3636,357
12779,4147,-3047,2800,-3666,-4084,322
12789,4015,-2593,3705,-3381,-4579,227
12799,4176,-2321,3785,-2642,-5223,50
12809,4773,-2481,3336,-2245,-5659,-116
12819,5768,-2612,4709,-2417,-5545,-61
12829,4924,-1924,4577,-2963,-4499,-10
12839,5192,-1089,5785,-3702,-5405,-860
12849,5795,-2073,5072,-5098,-3358,-605
12859,4326,-2986,5017,-4468,-2944,-554
12869,3563,-4909,4727,-4290,-2053,-492
12879,3283,-8123,3630,-2555,-818,-633
12889,2441,-12132,2622,-98,4,-735
12899,1054,-10557,1347,1725,50,-1016
12910,675,-6251,-534,3128,-101,-1081
12920,225,-3297,-1458,3620,-121,-800
12930,363,-1667,-1705,3447,-269,-782
12940,489,-1181,-1175,3129,-309,-679
12950,591,-1896,-668,3066,-626,-638
12960,1093,-2861,-332,3150,-878,-477
12970,1365,-2772,202,2764,-1481,-45
12980,2300,-1802,23,3534,-771,-452
12990,2698,-2297,799,3018,-836,-170
13000,2712,-2482,688,2940,-568,38
13010,2606,-2413,582,3023,-388,15
13020,2591,-2258,563,3181,-272,16
13030,2719,-2246,547,3268,-216,73
13040,2991,-2286,500,3188,-135,117
13050,3230,-2220,589,2957,62,158
13061,3218,-2158,832,2541,375,57
13071,3131,-2214,671,2175,675,-144
13081,2898,-2148,954,1771,985,-304
13091,2669,-1939,1223,1416,1099,-431
13101,2488,-1860,1377,984,1144,-496
13111,2530,-1982,1364,592,1023,-463
13121,2673,-2358,1568,368,872,-292
13131,2860,-2899,1914,273,751,-179
13141,2848,-3353,2197,206,737,-287
13151,3016,-3540,2385,178,803,-427
13161,2869,-3683,2699,307,724,-423
13171,2929,-3650,2738,280,580,-561
13181,3170,-3112,2578,-71,542,-768
13191,3440,-2793,2290,-204,568,-877
13201,3602,-3238,2025,-123,643,-985
13211,3855,-3665,1773,-148,685,-1067
13222,4234,-3466,1747,-101,644,-914
13232,4236,-2981,1633,-107,863,-922
13242,4225,-2500,1494,-113,1064,-990
13252,4016,-2345,1440,-70,1226,-916
13262,3658,-2487,1421,-33,1338,-848
13272,3331,-2647,1304,4,1327,-864
13282,3114,-2508,1269,73,1273,-939
13292,3043,-2155,1327,174,1188,-1049
13302,3066,-1800,1495,210,1076,-1139
13312,3189,-1583,1627,167,1004,-1266
13322,3391,-1422,1490,-27,963,-1411
13332,3547,-1294,1425,-298,1058,-1623
13342,3637,-1205,1029,-644,1204,-1844
13352,3558,-1453,786,-740,1406,-1974
13362,3277,-1793,862,-824,1511,-2070
13372,3049,-1950,881,-974,1561,-2187
13382,2800,-1897,492,-1098,1561,-2255
13392,2497,-1823,795,-1269,1598,-2334
13402,2219,-1615,434,-1476,1621,-2504
13412,1884,-1485,298,-1477,1553,-2516
13422,1504,-1520,130,-1595,1435,-2497
13432,1187,-1597,23,-1658,1306,-2564
13442,941,-1866,291,-1473,1129,-2761
13452,960,-2118,690,-1346,825,-2961
13462,1292,-2202,644,-1269,576,-3055
13473,1770,-2194,567,-1000,366,-2971
13483,2226,-2021,475,-705,323,-2761
13493,2456,-1850,829,-417,322,-2447
13503,2404,-1789,1412,-442,341,-2137
13513,2234,-1736,1634,-742,336,-1998
13523,2073,-1316,1766,-1432,350,-1908
13533,1727,-856,1679,-2206,343,-1892
13543,1430,-1216,1633,-2387,222,-1822
13553,1400,-2506,1448,-2158,72,-1695
13563,1710,-3534,1340,-1709,-3,-1589
13573,2087,-3502,1211,-1129,88,-1429
13583,2165,-2489,1272,-482,309,-1255
13593,1863,-1303,1730,-189,496,-1028
13603,1351,-437,2012,-351,457,-847
13613,957,-120,2296,-815,288,-646
13623,957,-271,2257,-1348,136,-483
13633,1566,-839,1989,-1867,74,-363
13643,2618,-1645,1824,-2162,203,-337
13653,3785,-2314,1695,-2162,535,-390
13663,4647,-2387,1593,-2070,923,-476
13673,4847,-1826,1459,-2110,1233,-483
13683,4794,-1328,1121,-2218,1416,-451
13693,5152,-1200,1072,-2578,1575,-442
13703,5850,-1446,1098,-3001,1596,-482
13713,5985,-2067,1000,-3247,1363,-538
13724,5565,-3078,1426,-3121,881,-692
13734,5028,-3600,1918,-2906,218,-1107
13744,4724,-3270,1943,-2353,-234,-1381
13754,4603,-2680,2044,-1842,-326,-1236
13764,4586,-2637,1744,-1655,-180,-1024
13774,4567,-3235,1179,-1702,-149,-1057
13784,4081,-2810,1377,-2259,-46,-1197
13794,3408,-1677,1014,-2753,-99,-1260
13804,3400,-650,438,-2850,-218,-1296
13814,4117,148,437,-2969,-307,-1261
13824,4860,-194,-386,-2626,-524,-769
13834,5399,-1038,-616,-2429,-570,-334
13844,5520,-1398,-1767,-2282,-493,-143
13854,6271,-1717,-1526,-1945,156,-77
13864,5867,-1661,-655,-2004,873,63
13874,5028,-1344,-70,-2275,1335,180
13884,4446,-1250,668,-2481,1739,521
13894,3785,-1326,1671,-2886,1985,635
13904,3310,-1628,1940,-2870,2049,510
13914,3021,-1652,2045,-2756,1754,354
13924,3313,-363,1645,-2914,1441,25
13934,4426,905,1150,-3088,1242,-235
13944,5581,1041,309,-3488,982,-234
13954,6404,501,-562,-3777,923,-234
13964,6573,142,-839,-3876,998,-313
13975,6079,100,-772,-3950,982,-392
13985,5774,169,-910,-4032,924,-398
13995,5609,-136,-839,-4085,880,-346
14005,5367,-719,-653,-4019,896,-319
14015,5090,-1035,-339,-3903,891,-273
14025,4882,-1084,-18,-3828,801,-281
14035,4932,-1108,142,-3802,781,-220
14045,4837,-1333,76,-3920,799,-147
14055,4784,-1832,16,-3932,872,-80
14065,4641,-2331,-42,-3923,958,-47
14075,4429,-2115,-65,-3883,1124,-56
14085,4247,-2149,206,-3798,1197,60
14095,3763,-2537,270,-3831,1218,171
14105,3510,-2678,350,-3865,1261,144
14115,3352,-2413,415,-3911,1304,143
14125,3246,-2276,431,-4021,1282,171
14135,3195,-2339,203,-4127,1231,192
14145,3193,-2642,-117,-4043,1217,200
14155,3128,-2965,-295,-3938,1225,188
14165,3151,-3299,-415,-3703,1230,139
14175,3077,-3362,-505,-3426,1258,105
14185,2942,-3263,-535,-3185,1310,81
14195,2751,-3056,-508,-3125,1344,46
14205,2599,-2905,-526,-3109,1391,-2
14215,2468,-2870,-374,-3084,1469,9
14226,2191,-2978,-693,-3020,1427,1
14236,1920,-3019,-641,-2783,1447,55
14246,1841,-2726,-534,-2858,1430,-5
14256,1909,-2524,-624,-2947,1439,-36
14266,1922,-2674,-582,-2961,1508,-10
14276,1948,-2694,-452,-3003,1581,-26
14286,1985,-2426,-459,-3009,1624,-38
14296,2024,-2335,-550,-2934,1644,21
14306,1971,-2591,-609,-2885,1635,29
14316,1996,-2808,-593,-2764,1659,8
14326,1963,-2681,-506,-2650,1679,-17
14336,1886,-2457,-485,-2563,1681,-7
14346,1721,-2414,-519,-2508,1651,29
14356,1683,-2416,-478,-2582,1599,47
14366,1793,-2595,-501,-2574,1573,88
14376,1864,-3120,-196,-2461,1524,186
14386,1912,-3562,142,-2324,1487,258
14396,2083,-3619,546,-2182,1541,330
14406,2458,-3483,763,-2193,1589,361
14416,2881,-3730,961,-2092,1641,396
14426,3361,-4113,838,-1967,1693,397
14436,3761,-4304,751,-1888,1791,396
14446,3869,-4472,683,-1777,1854,449
14456,3658,-4716,743,-1704,1793,574
14466,3534,-4757,885,-1668,1723,737
14477,3517,-4593,1039,-1733,1602,902
14487,3747,-4611,1029,-1710,1455,1042
14497,4003,-4600,1094,-1602,1333,1158
14507,4180,-4511,1269,-1470,1223,1190
14517,4370,-4501,1384,-1282,1128,1235
14527,4466,-4568,1574,-1102,1094,1258
14537,4477,-4543,1555,-950,1113,1239
14547,4456,-4512,1629,-721,1188,1300
14557,4273,-4409,1667,-579,1260,1380
14567,4087,-4292,1689,-490,1314,1465
14577,4029,-4148,1435,-408,1381,1568
14587,3904,-4016,1301,-289,1451,1706
14597,3773,-3976,1322,-196,1462,1784
14607,3689,-3963,1259,-97,1427,1821
14617,3681,-3881,944,53,1404,1837
14627,3787,-3750,734,92,1427,1873
14637,3919,-3662,283,68,1529,1887
14647,3820,-3776,148,66,1661,1954
14657,3619,-3693,36,-66,1785,1982
14667,3513,-3438,-214,-243,1844,2015
14677,3428,-3259,-317,-378,1903,2123
14687,3094,-3257,-444,-510,1860,2196
14697,2843,-3196,-629,-558,1811,2240
14707,2676,-2913,-1044,-576,1802,2266
14717,2677,-2676,-1588,-619,1815,2236
14728,2616,-2664,-1747,-735,1881,2234
14738,2440,-2573,-1750,-830,1946,2196
14748,2281,-2429,-1888,-840,1946,2172
14758,2262,-2136,-1600,-862,1995,2199
14768,2034,-1707,-1595,-950,1988,2171
14778,1926,-1415,-1688,-1152,1975,2117
14788,2108,-1208,-1913,-1324,2049,2058
14798,2097,-1100,-1938,-1635,2119,2020
14808,2031,-1087,-2169,-1946,2137,1917
14818,2064,-1135,-2233,-2125,2225,1816
14828,2074,-1011,-2675,-2332,2289,1711
14838,2274,-825,-2979,-2502,2447,1624
14848,2405,-637,-3449,-2747,2636,1540
14858,2522,-417,-3665,-2899,2894,1491
14868,2622,-192,-3947,-3138,3180,1420
14878,2989,114,-4289,-3384,3462,1319
14888,3600,360,-5094,-3587,3716,1206
14898,4476,393,-5865,-3596,4009,1057
14908,5312,336,-7576,-3483,4203,900
14918,6959,322,-8961,-3174,4582,721
14928,8935,662,-10235,-2896,4971,402
14938,11719,1076,-10536,-2434,5386,-173
14948,13999,1300,-12110,-1735,5073,-660
14958,16567,3953,-12575,-361,4368,-1096
14968,18663,9246,-14233,113,2571,-1939
14979,20056,11921,-17998,814,42,-3138
14989,21874,12163,-20594,1288,-2471,-4950
14999,23181,12862,-18796,1570,-5487,-7771
15009,28961,14459,-13812,2638,-8434,-11165
15019,-32768,8378,-2837,5089,-11430,-13462
15029,-32768,1027,9258,8660,-13884,-14763
15039,-32768,-8787,19908,11716,-15507,-14669
15049,-32768,-15948,23600,14817,-17397,-12212
15059,-32768,-18972,22935,16689,-19192,-8969
15069,31628,-24987,21445,18577,-20096,-5426
15079,23119,-29852,-2319,20213,-21376,-1886
15089,29625,29804,-8842,5864,-16598,-15048
15099,-32768,-32768,-5853,24272,-13406,14037
15109,4414,-23617,-9431,31872,-15836,-4775
15119,21189,11739,-32768,-32768,-8020,-3673
15129,31556,24347,-24818,-32768,-1392,6599
15139,32489,15358,-13238,32731,4379,8804
15149,19333,12964,-6123,26106,8159,10265
15159,12009,11202,-598,21299,8185,11851
15169,15324,7654,4147,16108,10081,12091
15179,11477,1534,11384,7919,9166,11489
15189,6570,-6521,6936,3121,6728,9503
15199,10468,-10213,5523,2983,7182,8510
15210,11995,-4535,4486,1232,6118,6715
15220,10614,-247,2723,-629,5287,6043
15230,11002,-912,-57,-2985,4695,5475
15240,10157,-1175,-1724,-3392,4232,4859
15250,8331,-166,-1487,-2767,3839,4506
15260,6869,1181,-678,-2455,3569,4013
15270,6093,2403,-17,-2660,3276,3425
15280,5615,3167,295,-3046,2891,2985
15290,5518,3443,585,-3559,2474,2652
15300,5619,3556,422,-4019,2004,2365
15310,5892,3442,-141,-4345,1668,2166
15320,6061,3111,-790,-4690,1465,2021
15330,6075,2884,-1181,-4776,1465,1896
15340,5529,2807,-773,-4669,1472,1866
15351,4904,3087,-846,-4567,1365,1845
15361,4502,3358,-1213,-3964,1117,1704
15371,3984,3384,-770,-3412,886,1688
15381,3222,3830,-454,-3301,663,1787
15391,2551,4469,-95,-3307,436,1593
15401,2376,4969,264,-3500,94,1291
15411,2407,4858,384,-3730,-232,1085
15421,2523,4172,532,-3826,-496,941
15431,2631,3226,566,-3805,-676,823
15441,2667,2420,736,-3607,-767,674
15451,2670,1912,922,-3219,-816,459
15461,2574,1662,1222,-2751,-846,265
15471,2535,1639,1302,-2359,-816,103
15481,2506,1545,1404,-2154,-754,-62
15491,2464,1363,1624,-2279,-713,-320
15502,2392,1167,1541,-2363,-697,-638
15512,2373,852,1329,-2270,-663,-965
15522,2371,504,1371,-2208,-675,-1275
15532,2434,83,1338,-2032,-700,-1610
15542,2526,-244,1277,-1741,-715,-1986
15552,2699,-248,1135,-1503,-698,-2317
15562,2868,-166,1302,-1139,-692,-2602
15572,3040,-524,1742,-855,-784,-2826
15582,3160,-725,1961,-1173,-895,-3078
15592,3331,-575,1921,-1518,-1022,-3427
15602,3607,-742,2161,-1799,-1116,-3699
15612,3809,-1372,2276,-2193,-1198,-3826
15622,3947,-2253,2168,-2505,-1271,-3979
15632,4075,-3213,1973,-2522,-1328,-4196
15643,4246,-4038,1626,-2283,-1348,-4456
15653,4468,-4458,1091,-1863,-1248,-4691
15663,4479,-5085,1065,-1163,-1021,-4859
15673,4310,-6314,1359,-665,-957,-4973
15683,4543,-7846,1911,-654,-1026,-5198
15693,4742,-9150,2166,-880,-1171,-5428
15703,4604,-10029,2698,-1003,-1198,-5529
15713,4226,-10355,3269,-1294,-1260,-5365
15723,3950,-10784,3671,-1390,-1310,-5032
15733,3880,-11701,3705,-1353,-1417,-4627
15743,3817,-12778,3671,-770,-1418,-4311
15753,3227,-12324,3576,-574,-1393,-4303
15763,2699,-10653,3145,-598,-1498,-4475
15773,2047,-9961,3632,-485,-1670,-4410
15784,1574,-9563,3947,-528,-1769,-4297
15794,1485,-9175,4696,-530,-1693,-4083
15804,1652,-8516,3173,-655,-1699,-4008
15814,2336,-8502,3766,260,-1260,-3681
15824,1592,-7627,3982,-9,-1217,-3251
15834,1346,-6698,3726,152,-1104,-3051
15844,1267,-6341,4053,-32,-995,-2750
15854,1262,-6116,3771,-238,-904,-2508
15864,1418,-6031,3541,-157,-736,-2315
15874,1326,-5545,3351,-152,-536,-2089
15884,1201,-5057,3269,-54,-369,-1887
15894,1193,-4645,3202,-6,-166,-1717
15904,1247,-4234,3112,-59,42,-1631
15914,1277,-3956,2764,-34,157,-1625
15925,1450,-3778,2841,-59,246,-1580
15935,1423,-3585,2724,25,283,-1620
15945,1546,-3510,2693,130,248,-1564
15955,1609,-3246,2629,22,206,-1421
15965,1477,-3065,2650,-260,117,-1360
15975,1359,-3097,2544,-602,-49,-1307
15985,1376,-3298,2488,-834,-251,-1271
15995,1422,-3730,2470,-876,-475,-1244
16005,1681,-3983,2313,-882,-694,-1213
16015,2119,-4073,2110,-633,-805,-1087
16025,2375,-4119,1703,-284,-788,-903
16035,2635,-4409,1427,195,-646,-687
16045,2775,-4823,1551,575,-421,-456
16055,2774,-4939,1656,680,-151,-293
16065,2727,-4801,1853,649,65,-176
16076,2660,-4480,1996,473,123,-47
16086,2681,-4219,2109,335,170,114
16096,2650,-4129,2186,208,197,243
16106,2629,-3933,1998,241,172,337
16116,2599,-3772,2078,394,174,456
16126,2556,-3426,2206,505,216,545
16136,2533,-3042,2323,539,236,623
16146,2562,-2678,2448,445,213,663
16156,2602,-2521,2483,373,162,721
16166,2660,-2484,2435,345,121,766
16176,2675,-2411,2438,335,87,810
16186,2650,-2293,2455,312,59,839
16196,2643,-2168,2415,254,34,847
16206,2653,-2069,2390,182,16,849
16216,2677,-1944,2279,98,-1,847
16226,2701,-1860,2199,73,-27,869
16237,2739,-1898,2084,122,-56,888
16247,2814,-1973,2078,180,-71,880
16257,2829,-1939,2075,198,-85,837
16267,2902,-1793,1924,213,-76,785
16277,2947,-1685,1854,237,-56,744
16287,2980,-1706,1843,210,-32,690
16297,3093,-1683,1750,142,-1,621
16307,3200,-1638,1577,114,99,590
16317,3208,-1628,1452,164,161,573
16327,3230,-1707,1405,253,226,553
16337,3333,-1847,1340,402,271,514
16347,3462,-1947,1383,586,340,449
16357,3613,-1842,1462,713,428,376
16367,3630,-1597,1602,741,481,325
16377,3623,-1436,1597,700,492,277
16387,3715,-1396,1540,593,497,235
16397,3778,-1387,1526,527,528,209
16407,3702,-1358,1562,478,581,200
16417,3520,-1371,1668,461,619,183
16427,3293,-1271,1750,414,615,145
16437,3079,-1075,1806,348,590,78
16447,2926,-892,1836,257,555,30
16457,2778,-773,1793,112,495,-23
16467,2759,-658,1751,-73,412,-91
16477,2865,-636,1768,-262,291,-187
16488,3089,-644,1767,-462,139,-297
16498,3475,-719,1706,-602,-10,-446
16508,3822,-805,1599,-644,-148,-574
16518,4004,-1037,1736,-577,-294,-684
16528,3999,-943,2421,-655,-335,-704
16538,3780,-639,2212,-564,-505,-995
16548,3989,-514,2012,-1129,-876,-924
16558,3952,-936,1529,-1409,-947,-880
16568,4018,-1707,1490,-1412,-809,-945
16578,3730,-1976,1838,-1256,-587,-936
16588,3453,-1502,2340,-1007,-321,-1007
16598,3343,-852,2775,-957,-190,-975
16608,3217,-806,2767,-954,-203,-848
16618,3201,-1227,2908,-888,-148,-770
16628,2978,-927,3098,-762,-25,-770
16638,2894,-546,3179,-386,38,-899
16648,2694,-650,2979,-696,-196,-664
16658,2729,-1274,2603,-860,-270,-797
16668,2933,-1475,2644,-888,-156,-1000
16678,2816,-1055,2908,-856,-58,-1122
16688,2712,-793,3112,-930,-57,-1200
16698,2766,-780,2925,-1107,-97,-1236
16708,2905,-1003,2677,-1171,-107,-1261
16718,3020,-1237,2521,-1171,-111,-1263
16728,3055,-1469,2457,-1129,-113,-1284
16739,3042,-1731,2457,-1086,-167,-1312
16749,3210,-2150,2311,-918,-313,-1311
16759,3588,-2848,2072,-356,-389,-1206
16769,3988,-3389,1880,377,-262,-1016
16779,4130,-3529,1988,1108,-42,-734
16789,4224,-3215,2174,1519,325,-436
16799,4033,-2834,2378,1552,575,-147
16809,3667,-2594,2733,1269,714,-5
16819,3396,-2212,2557,821,727,39
16829,3244,-2151,2418,721,713,62
16839,3343,-2275,2210,877,757,110
16849,3252,-2050,2050,1209,890,166
16859,2911,-1765,2191,1551,1018,210
16869,2544,-1656,2455,1768,1038,171
16879,2364,-1494,2653,1731,968,133
16889,2129,-1375,3029,1735,826,112
16899,1868,-1750,3250,1700,576,125
16909,1738,-1985,3273,1775,471,267
16919,1806,-2145,3322,1808,400,379
16929,1936,-2271,3099,1896,295,481
16939,2137,-2418,3043,2030,261,631
16949,2288,-2427,2959,2224,228,769
16959,2558,-2163,2973,2382,267,888
16969,2870,-1428,2918,2382,322,1028
16979,2970,-1284,3011,2402,269,1228
16990,2917,-1630,2797,2258,245,1458
17000,3295,-1579,2663,2199,274,1565
17010,3455,-1676,2894,2241,459,1695
17020,3157,-2440,2965,2346,599,1913
17030,3387,-2630,2553,2577,920,1995
17040,3384,-1376,2739,2651,1195,1817
17050,3022,-170,3094,2486,1206,1776
17060,2746,-31,3308,2249,1067,1891
17070,2754,-544,3233,2230,929,1934
17080,2777,-1037,3041,2464,812,1882
17090,2855,-982,2867,2571,731,1731
17100,2905,-266,2660,2453,604,1601
17110,2919,87,2615,2245,540,1597
17120,3021,286,2145,1799,514,1622
17130,3169,135,2012,1699,575,1712
17140,3297,119,1703,1662,752,1827
17150,3431,137,2063,1797,894,1987
17160,3040,-287,2103,1920,952,2153
17170,3060,-623,2678,2068,1030,2103
17180,3089,-270,2882,2069,1008,2036
17190,3010,-28,3099,1931,921,1964
17200,2994,56,3081,1637,830,1899
17210,3060,-5,2963,1444,754,1762
17220,3178,-106,2879,1211,735,1698
17230,3205,19,2714,1035,700,1646
17241,3123,-75,2688,1034,651,1639
17251,3077,-487,2701,1072,598,1672
17261,3199,-615,2828,1160,594,1596
17271,3113,-451,2913,1130,557,1537
17281,3043,-413,2937,907,497,1499
17291,3153,-569,2709,692,462,1460
17301,3220,-782,2845,687,442,1463
17311,3079,-840,3088,719,420,1465
17321,2950,-800,3242,710,366,1430
17331,2862,-760,3452,616,327,1428
17341,2748,-701,3601,503,290,1417
17351,2613,-875,3469,350,300,1437
17361,2641,-1009,3353,303,339,1424
17371,2628,-984,3344,311,413,1420
17381,2483,-794,3378,350,505,1370
17391,2284,-648,3406,451,558,1380
17401,2083,-683,3529,487,552,1389
17411,2009,-831,3534,572,537,1370
17421,1901,-879,3694,588,499,1343
17431,1849,-679,3712,491,449,1264
17441,1864,-656,3568,376,405,1225
17451,1862,-833,3337,313,394,1191
17461,1801,-878,3354,326,389,1137
17471,1763,-793,3379,337,370,1105
17481,1684,-852,3353,396,333,1095
17492,1636,-919,3403,482,286,1094
17502,1520,-932,3480,545,232,1091
17512,1379,-963,3512,514,174,1065
17522,1375,-1020,3407,460,127,1017
17532,1353,-1172,3384,447,66,969
17542,1353,-1287,3479,506,33,923
17552,1310,-1336,3601,544,-12,865
17562,1364,-1051,3533,465,-5,843
17572,1419,-640,3449,404,15,867
17582,1377,-759,3486,308,44,979
17592,1277,-1261,3543,335,56,1052
17602,1293,-1576,3590,475,102,1065
17612,1241,-1658,3595,576,126,1027
17622,1213,-1463,3675,552,156,982
17632,1202,-1259,3673,467,148,947
17642,1178,-1275,3674,361,109,933
17652,1196,-1282,3675,333,68,914
17662,1190,-1230,3693,331,1,876
17672,1272,-1128,3554,256,-30,844
17682,1318,-1230,3344,254,-65,830
17692,1346,-1436,3261,244,-82,831
17702,1403,-1362,3166,280,-87,774
17712,1429,-1270,3188,259,-118,719
17722,1438,-1100,3079,205,-169,656
17732,1489,-971,3015,178,-233,599
17743,1465,-824,2985,114,-333,544
17753,1472,-605,3020,-32,-500,418
17763,1544,-468,3110,-185,-686,274
17773,1485,-566,3010,-266,-890,97
17783,1528,-399,2914,-472,-1158,-107
17793,1499,-72,2692,-749,-1377,-267
17803,1472,53,2364,-1084,-1574,-406
17813,1576,185,2262,-1408,-1768,-508
17823,1690,327,1994,-1668,-1862,-579
17833,1831,324,1530,-1774,-1906,-642
17843,1969,135,1054,-1985,-1960,-701
17853,2178,151,716,-2303,-1952,-695
17863,2211,59,402,-2247,-1921,-640
17873,2183,-331,282,-1902,-1999,-662
17883,2183,-1247,350,-1552,-2171,-762
17893,2398,-1951,887,-1345,-2334,-706
17903,2587,-1911,1479,-1160,-2389,-719
17913,2950,-1241,1783,-1113,-2386,-782
17923,3338,-519,1743,-1010,-2336,-633
17933,3653,-744,1585,-844,-2082,-314
17943,3693,-2041,2053,-1052,-1832,5
17953,3499,-3128,2882,-1523,-1684,46
17963,3309,-3098,2827,-1300,-1485,-289
17973,3289,-2229,2635,-609,-1301,-638
17983,3287,-1276,2683,-312,-1422,-954
17994,3733,-343,3002,-568,-1543,-967
18004,3596,183,2788,-814,-1567,-912
18014,3774,-324,2451,-839,-1441,-1064
18024,3866,-714,2147,-903,-1277,-1286
18034,4142,399,2429,-887,-1103,-1581
18044,4276,1202,2608,-1145,-1135,-1623
18054,4003,576,2557,-1547,-1367,-1519
18064,3999,-541,2189,-1778,-1545,-1556
18074,4429,-913,1931,-1935,-1519,-1726
18084,4586,-296,2243,-2350,-1519,-1835
18094,4411,229,2572,-2975,-1593,-1802
18104,4247,-127,3038,-3672,-1773,-1764
18114,4252,-985,3048,-4236,-2001,-1754
18124,4285,-1902,2542,-4257,-2169,-1735
18134,4451,-2473,1783,-3654,-2129,-1669
18144,4585,-2541,1077,-2671,-1919,-1578
18154,4720,-2637,1179,-1749,-1578,-1453
18164,4759,-2701,1903,-1392,-1226,-1303
18174,4655,-2713,2677,-1289,-918,-1235
18184,4530,-2552,3448,-1455,-595,-1326
18194,4310,-2114,4091,-2066,-293,-1516
18204,4010,-1862,4192,-2725,-11,-1654
18214,3315,-2159,3983,-2976,-12,-1705
18224,2916,-2682,3934,-2954,-162,-1504
18235,2308,-2925,3239,-2759,-175,-1336
18245,2050,-3388,2446,-1971,-127,-1145
18255,1826,-4066,2349,-1079,27,-778
18265,1737,-4010,2504,-326,176,-623
18275,1950,-3130,2841,409,334,-627
18285,2282,-2149,3243,642,434,-578
18295,2685,-1579,3420,342,560,-560
18305,2822,-1534,3338,-79,720,-411
18315,2580,-1717,3013,-378,857,-113
18325,2195,-1879,2268,-432,903,206
18335,2362,-2489,1887,-255,898,515
18345,2699,-3157,1740,245,1143,752
18355,2805,-3387,1801,890,1351,990
18365,2785,-2668,2016,1420,1617,1123
18375,2894,-1832,2257,1615,1850,1303
18385,3012,-1341,2636,1477,2037,1434
18395,3109,-1194,2782,1275,2125,1499
18405,3107,-1275,2802,1149,2081,1514
18415,3047,-1269,2855,1098,2033,1576
18425,2763,-880,2972,964,2003,1637
18436,2671,-781,2843,797,1934,1646
18446,2627,-1157,2593,750,1818,1714
18456,2529,-1598,2496,971,1820,1752
18466,2485,-1872,2489,1232,1858,1702
18476,2557,-1587,2543,1530,1890,1691
18486,2401,-1296,2846,1679,1979,1676
18496,2466,-1374,3403,1621,2043,1604
18506,2927,-1489,3682,1595,2190,1466
18516,3321,-1531,3575,1655,2331,1286
18526,3428,-929,3704,1470,2534,1020
18536,3003,-753,3263,1489,2439,808
18546,2748,-1255,2843,1636,2286,672
18556,2150,-877,2247,1685,2071,460
18566,1285,286,1624,1741,1546,7
18576,845,325,920,1910,892,-416
18586,1527,326,1128,2034,333,-929
18596,3198,882,1546,1867,-178,-1503
18606,5085,700,2339,1758,-534,-2006
18616,6968,-3,4053,1640,-673,-2217
18626,8357,26,5761,1207,-638,-2408
18637,8989,808,6018,296,-698,-2677
18647,9368,2250,5073,-1292,-831,-2778
18657,9866,4021,2781,-3471,-986,-2435
18667,9871,4948,519,-5308,-990,-1754
18677,8797,4231,-861,-6775,-938,-921
18687,6420,10619,-3736,-9811,-1873,-560
18697,7332,6447,206,-9432,-1005,-274
18707,7567,5473,-4727,-10119,-656,-1322
18717,7223,5901,-3402,-9641,-787,-764
18727,6760,4407,-3861,-8823,-281,-308
18737,6129,1036,-3198,-7103,36,481
18747,5782,-1294,-2558,-4886,317,904
18757,5878,-2593,-1709,-2172,765,1313
18767,5958,-3151,-526,265,1317,1632
18777,5964,-2229,222,2181,1803,1750
18787,5808,-1013,1438,3292,2122,1820
18797,5494,-887,2297,3587,2110,1861
18807,4701,-1175,2721,3283,1867,1811
18817,4206,-1307,3123,2814,1600,1562
18827,4281,-1589,3277,2154,1281,1173
18838,4408,-1629,1940,1623,1047,831
18848,4448,-137,-11,1715,1273,458
18858,4395,1381,-1137,2066,1459,75
18868,1970,3600,-1345,1668,993,-641
18878,-524,4643,-433,1576,89,-1478
18888,5,3285,-550,1672,-778,-2440
18898,2211,422,-432,1463,-1767,-3312
18908,3959,-3975,1082,1541,-2851,-3798
18918,4652,-6591,3974,1392,-3584,-3791
18928,4203,-6443,6400,496,-3903,-4014
18938,4160,-3958,7092,-592,-3892,-4351
18948,4599,-1239,5330,-1900,-4009,-4639
18958,5453,1218,3468,-3077,-4119,-4770
18968,5691,2909,2260,-4141,-4116,-4622
18978,7747,10168,1670,-6277,-2583,-5258
18988,9410,-189,4078,-8402,-3234,-3250
18998,6131,502,-833,-9560,-3048,-4327
19008,8508,2972,-1989,-10435,-2728,-4769
19018,9276,985,-3046,-9805,-2298,-3750
19028,9689,-494,-3662,-9000,-1915,-2956
19039,8405,-1789,-3784,-7738,-1476,-2206
19049,7441,-3043,-2921,-6361,-1056,-1265
19059,7428,-3764,-2621,-5498,-794,-1486
19069,7600,-3402,-1983,-4316,-468,-1369
19079,7115,-2992,-1328,-3388,-309,-1165
19089,6475,-3211,-448,-2547,-200,-950
19099,6064,-3567,70,-1791,-161,-839
19109,5833,-3410,451,-1075,-59,-812
19119,5572,-2995,787,-458,89,-798
19129,5179,-2565,1148,-145,208,-808
19139,4645,-2158,1343,-7,218,-871
19149,4064,-1761,1407,80,243,-927
19159,3636,-1511,1483,93,263,-933
19169,3112,-1554,1733,48,271,-967
19179,2873,-1913,1424,110,245,-1058
19189,2700,-2058,1414,157,268,-1089
19199,2699,-2140,1182,200,266,-1199
19209,2692,-2271,971,246,208,-1294
19219,2762,-2488,858,488,142,-1335
19229,2574,-2517,847,771,64,-1290
19240,2511,-2433,873,1088,-45,-1211
19250,2746,-2360,1179,1135,-183,-1088
19260,2990,-2514,1072,1237,-317,-1013
19270,3131,-2530,900,1487,-404,-929
19280,3151,-2261,852,1823,-456,-792
19290,3368,-1889,1178,1911,-520,-657
19300,4207,-2301,1054,1653,-755,-310
19310,4365,-1519,639,2239,-489,-208
19320,4536,-1279,1786,1866,-603,-66
19330,5275,-834,1803,1448,-587,-88
19340,5546,-675,2255,1274,-579,-86
19350,5644,-603,2210,1161,-658,-129
19360,5851,-785,1809,1367,-588,-39
19370,6159,-1377,1166,2042,-305,259
19380,5730,-1733,284,3129,123,432
19390,5325,-1362,-563,3905,730,-83
19400,4705,-554,-1013,4067,1212,-482
19410,4150,-87,-3055,4407,1336,-758
19420,4477,58,-6600,6665,2020,-676
19430,4588,-879,-3881,9159,3679,-647
19441,5323,-767,596,7862,5656,-1353
19451,4161,1571,2213,5551,6763,-1317
19461,1661,1560,4392,5222,5430,-507
19471,911,-1319,1713,3429,3795,-522
19481,2622,-1524,1190,1676,2460,330
19491,-312,-402,-137,1356,2280,-27
19501,2386,-262,4082,3147,2647,-1422
19511,3207,677,3456,2462,1779,-529
19521,1204,-957,3964,2933,461,489
19531,1467,-3041,1148,3079,-574,-94
19541,2205,-2348,1376,3172,-1586,161
19551,2994,-670,917,2006,-1734,221
19561,3008,128,393,1707,-2010,667
19571,2438,-994,2624,1317,-2248,1287
19581,1825,-1161,1156,1177,-2530,1208
19591,2246,-1608,1468,2113,-2308,1870
19601,2193,-1748,827,1904,-2387,2425
19611,3391,-1993,669,1900,-1873,2745
19621,3499,-3248,1947,1135,-999,3320
19631,3254,-3737,-612,243,-388,3077
19642,2768,-4133,-1871,1323,627,2148
19652,1267,-3216,-3190,104,835,2478
19662,2850,-3625,2073,531,448,2567
19672,2899,-3231,3193,-69,2201,1810
19682,3467,-582,3701,577,2278,1378
19692,1957,459,3545,673,1867,2304
19702,1369,-1037,1898,727,996,2543
19712,1975,-2689,48,-123,565,2436
19722,3469,-2991,-53,-526,927,1925
19732,4665,-2489,1265,-175,1486,1803
19742,4594,-1977,2765,-116,1708,2182
19752,4272,-1828,3866,-511,1572,2408
19762,4736,-1941,3402,-938,1309,2537
19772,6118,-2165,2165,-1096,1285,2990
19782,7497,-3558,2426,-559,1607,3686
19792,7117,-5054,2793,-389,1682,4181
19802,6743,-4386,3004,-218,1586,4072
19812,7514,-3010,2910,-173,1139,3969
19822,8743,-1622,2484,-174,785,4350
19832,9399,-1182,2179,-297,691,4605
19843,10210,-657,2158,-798,713,4587
19853,10522,-227,2163,-1191,889,4757
19863,10129,-333,2432,-1562,984,5024
19873,9688,-1025,2711,-1590,1002,5415
19883,9363,-1717,2932,-1513,1022,5813
19893,9073,-1859,2714,-1458,949,6059
19903,8570,-2221,2227,-1167,876,6345
19913,8257,-3143,1602,-962,1033,6494
19923,7938,-3834,1613,-332,1228,6381
19933,6490,-3325,1172,448,1077,5926
19943,5823,-2550,1365,1605,1103,5793
19953,5115,-1356,1341,2058,1163,5362
19963,4126,-1223,875,2559,1130,4876
19973,3469,-1885,594,2828,1199,4557
19983,2900,-2440,242,3447,1342,3972
19993,1948,-1980,-134,3775,1339,3073
20003,1606,-1245,75,3581,1491,2329
20013,-184,-261,-663,2868,1417,2472
20023,371,234,-1196,2112,1159,2097
20033,1794,213,-1703,1919,1245,1714
20044,1397,-758,-2391,1953,1359,1892
20054,1547,-2044,-2245,2111,1575,1997
20064,2090,-1913,-2001,2322,2157,1874
20074,1151,-190,-290,2021,2139,1779
20084,-522,1009,459,1134,1513,1353
20094,-951,1035,243,556,734,623
20104,-491,1118,-1107,429,-19,-170
20114,410,683,-2177,714,-636,-734
20124,641,759,-2306,981,-1102,-1274
20134,617,1566,-1805,1331,-1619,-1735
20144,548,2142,-1572,1721,-2237,-2160
20154,671,2527,-1434,1920,-2951,-2609
20164,923,2543,-1355,2041,-3637,-3023
20174,1025,1850,-822,2219,-4266,-3409
20184,1109,967,-12,2578,-4896,-3750
20194,1217,149,716,2960,-5382,-4034
20204,1382,-551,1444,3137,-5731,-4252
20214,1672,-1244,2104,3211,-5969,-4345
20224,2749,-1659,2230,3020,-5703,-4180
20234,3542,-1386,1306,2652,-5059,-3865
20244,3874,-2155,2212,2943,-4504,-3700
20255,3226,-3416,4516,2937,-4431,-3423
20265,3394,-2396,4943,2416,-4405,-3474
20275,4882,2429,1495,1068,-3064,-3913
20285,8954,4336,5222,856,-3506,-3975
20295,5227,-2287,6835,-1177,-3630,-2980
20305,4681,-467,4105,40,-2641,-3933
20315,6649,492,4236,-440,-2888,-3928
20325,6469,-314,3439,-1419,-2937,-3726
20335,7446,-1673,2094,-2120,-2977,-3699
20345,8195,-3281,1363,-2490,-2995,-3541
20355,8079,-3896,1599,-2472,-3007,-3387
20365,7866,-3409,1833,-2315,-2936,-3116
20375,8050,-3141,1865,-2014,-2771,-2719
20385,7871,-3237,2261,-1848,-2605,-2281
20395,7275,-2793,2532,-1835,-2460,-2059
20405,6740,-2125,2723,-1969,-2306,-1936
20415,6427,-1505,2701,-2287,-2152,-1817
20425,6133,-1152,2637,-2642,-2022,-1739
20435,5846,-946,2463,-3075,-1902,-1704
20445,5635,-900,2218,-3379,-1742,-1667
20455,5321,-907,2091,-3600,-1632,-1584
20465,5179,-1119,1863,-3616,-1546,-1482
20475,5078,-1477,1768,-3477,-1476,-1357
20485,4918,-1775,1718,-3163,-1439,-1247
20495,4752,-1935,1737,-2707,-1399,-1133
20506,4543,-1900,2031,-2234,-1319,-992
20516,4411,-1747,2422,-1891,-1252,-906
20526,4361,-1530,2768,-1673,-1164,-827
20536,4356,-1424,2952,-1547,-1074,-712
20546,4264,-1626,2857,-1561,-922,-572
20556,4123,-1973,3003,-1686,-660,-471
20566,3851,-2136,3189,-1774,-364,-397
20576,3599,-1850,3178,-1900,-99,-283
20586,3501,-1685,2900,-1899,84,-60
20596,3562,-1772,2601,-1850,296,231
20606,3703,-1840,2305,-1680,510,457
20616,3994,-1291,1826,-1509,655,578
20626,4284,-414,1500,-1338,770,752
20636,4353,-196,1442,-1346,794,1023
20646,4317,-480,1273,-1345,815,1217
20656,4261,-616,853,-962,766,1292
20666,4324,-201,1059,-545,792,1463
20676,4361,401,1266,-400,843,1673
20686,4147,517,1476,-453,880,1904
20696,3890,285,1731,-626,803,1991
20706,3618,123,2032,-847,695,2001
20716,3290,-20,2052,-1021,662,2113
20726,3035,-489,1960,-1021,648,2212
20736,2993,-1202,1580,-836,639,2150
20746,3241,-1877,1511,-386,812,1949
20757,3602,-2501,1487,274,1026,1674
20767,3823,-2540,1338,791,1290,1422
20777,3140,-2251,1848,1066,1669,1361
20787,2000,-2092,1956,1244,1471,895
20797,2740,-1353,1775,1205,1376,103
20807,2586,-453,1723,1022,1587,32
20817,1925,-6,1391,-590,1442,-11
20827,2662,1279,-259,-1858,1397,-34
20837,4118,297,1364,-1338,1708,448
20847,3562,-1149,666,-1794,1485,1253
20857,4648,-3197,1565,-450,2001,1932
20867,4342,-4730,2772,104,2518,2461
20877,3582,-4131,3468,62,2654,2410
20887,2930,-3391,3550,-55,2318,2770
20897,3000,-3856,3136,-280,1942,3051
20907,3832,-4441,2538,-269,1881,3085
20917,3829,-4356,2341,213,1937,3237
20927,3204,-3528,3076,623,2019,3269
20937,2429,-3100,3673,487,1921,3343
20947,2190,-3198,4097,214,1671,3219
20957,2038,-2748,4160,-62,1469,3047
20967,1912,-2088,4058,-226,1196,2959
20977,1826,-2462,3986,35,917,2947
20987,1839,-3121,3517,506,733,2967
20997,1820,-3348,3048,919,715,2998
21008,1597,-3221,2997,1031,688,2982
21018,1316,-3199,3128,913,625,2946
21028,1026,-3575,3269,863,505,2925
21038,808,-3942,3354,818,341,2928
21048,470,-4247,3417,862,142,2956
21058,275,-4556,3473,955,-48,2972
21068,222,-4776,3481,1049,-214,3009
21078,397,-4754,3221,1147,-263,3119
21088,581,-4753,2524,1342,-145,3291
21098,493,-4894,2537,1530,78,3462
21108,188,-4962,2695,1462,260,3550
21118,106,-5034,2699,1436,386,3615
21128,30,-4893,2748,1403,548,3689
21138,-194,-4899,2735,1313,690,3723
21148,-5,-4997,2810,1313,871,3811
21158,-34,-4830,2864,1200,1066,3990
21168,-412,-4530,2824,929,1189,4043
21178,-586,-4998,2892,995,1249,4055
21188,-403,-5532,2646,1248,1307,4167
21198,-355,-5414,2504,1433,1450,4227
21208,-473,-5131,2300,1460,1525,4189
21218,-407,-5230,1996,1484,1572,4217
21228,-396,-5228,1942,1498,1625,4343
21239,-508,-5452,1928,1533,1559,4471
21249,-594,-5055,1654,1162,1451,4458
21259,-481,-5087,1187,1219,1211,4451
21269,-567,-5745,1352,1283,1130,4559
21279,-476,-5676,1366,1294,960,4571
21289,-260,-5305,1321,1216,794,4645
21299,-124,-5648,1485,1118,549,4794
21309,526,-6346,1500,994,476,4929
21319,1083,-6563,1734,993,497,5133
21329,1392,-6412,2204,645,448,5349
21339,1954,-6486,2174,383,288,5549
21349,2417,-6850,2295,349,177,5786
21359,2775,-6183,2224,269,-34,5947
21369,3088,-5642,2200,214,-367,6139
21379,3516,-5745,2325,344,-836,6283
21389,4029,-5718,2818,694,-1272,6328
21399,4554,-5048,3343,1124,-1730,6218
21410,5228,-3971,3600,1590,-2067,6108
21420,5915,-3025,3160,2237,-2192,6000
21430,6755,-1964,2901,2684,-2013,6029
21440,7202,-770,2619,2917,-1844,6014
21450,7547,161,2689,3049,-1854,5974
21460,8153,860,2707,3256,-2109,5979
21470,9207,1768,2917,3400,-2157,5960
21480,9742,2711,2676,3620,-2459,5686
21490,10409,3216,3057,3734,-2854,5649
21500,11228,3508,3053,3854,-3219,5356
21510,12111,3809,3246,4103,-3458,4842
21520,12847,4662,3449,4277,-3651,4253
21530,13932,5555,3644,4589,-3768,3659
21540,14188,6834,3990,4666,-3927,3057
21550,14049,8128,4141,4561,-4070,2123
21560,13730,8545,4251,4189,-4249,1097
21570,13628,8394,3642,3657,-4349,-152
21581,14190,7967,1851,3607,-4364,-1477
21591,14812,7032,-1036,4346,-4183,-2628
21601,14939,7019,-3119,5120,-4033,-4424
21611,15358,9115,-3244,4644,-4754,-6623
21621,18294,8226,-2897,2668,-5890,-8818
21631,23055,2977,-3266,-218,-6885,-11028
21641,25980,-524,-4702,-3680,-8263,-13830
21651,31714,-4346,-6757,-7163,-8135,-16413
21661,-32768,-10147,-6541,-10136,-7513,-18994
21671,-32768,-16189,-3088,-13013,-6231,-21791
21681,-32768,-21724,1022,-15392,-3553,-24292
21691,-32768,-27711,3270,-17555,-137,-26468
21701,-32768,-31400,3991,-19005,3865,-27879
21711,31620,-17982,16338,-21334,5905,-29371
21721,-32768,-14973,-16112,4806,5325,-19138
21731,-32768,-152,-4740,-17806,796,-23087
21742,26757,-4319,-24485,-23620,858,-21971
21752,25141,3537,-15069,-24425,950,-17890
21762,28369,11294,-8970,-28018,3102,-17615
21772,28105,766,-2246,-27393,4480,-11843
21782,32552,-6274,-109,-25766,6703,-8811
21792,-32768,-2221,-1823,-22623,7858,-4625
21802,31736,-1323,-7831,-16794,8468,185
21812,19855,5978,-939,-10530,9826,822
21822,20044,16905,-1606,-8080,9027,813
21832,22773,12154,-2260,-5162,7616,2555
21842,18118,9069,-1263,-2531,6813,2156
21852,17982,9699,-911,-682,6209,1927
21862,17526,8646,-1411,550,5522,2008
21872,15558,6177,-2194,2280,4703,2234
21882,14629,4120,-4128,4266,4136,2195
21892,15000,3144,-6188,6525,3826,1788
21902,14308,2857,-7892,8772,3758,1113
21913,13526,2329,-9066,10488,3964,50
21923,13250,1625,-9630,11664,4354,-1304
21933,12488,1066,-9618,12647,4560,-2211
21943,12092,436,-8660,13246,4802,-2818
21953,11958,160,-6453,13025,5052,-3207
21963,11679,39,-3862,12092,5070,-3347
21973,10051,-610,-494,10572,4494,-3236
21983,8292,-1442,1345,8156,3431,-3173
21993,8538,-1634,1128,5497,2967,-3183
22003,9191,-2283,1774,3407,2859,-2945
22013,7281,-3899,3183,1372,1883,-2867
22023,5279,-5512,2225,-379,618,-2769
22033,5079,-7077,685,-1429,-50,-2316
22043,5042,-8416,-561,-1762,-589,-1930
22053,4310,-9107,-1087,-1406,-950,-1824
22063,3280,-9181,-992,-864,-972,-1714
22073,2573,-8842,-591,-356,-736,-1543
22084,2077,-7903,-94,-146,-490,-1411
22094,1694,-6794,332,-191,-358,-1226
22104,1255,-6393,675,-378,-288,-965
22114,1054,-6274,789,-711,-260,-691
22124,1041,-5786,658,-1030,-235,-451
22134,1169,-5078,446,-1234,-262,-246
22144,1324,-4706,390,-1392,-387,15
22154,1541,-4282,413,-1734,-560,248
22164,2059,-3452,31,-2060,-664,432
22174,2502,-2937,264,-2454,-731,749
22184,2705,-2723,184,-3111,-866,1004
22194,3189,-2472,-39,-3485,-963,1112
22204,3768,-2089,-305,-3643,-1035,1238
22214,4436,-1773,-634,-3631,-1116,1400
22224,5138,-1563,-630,-3438,-1246,1611
22234,5657,-1420,-426,-3131,-1480,1756
22244,6249,-1422,-211,-2505,-1766,1918
22254,6865,-1591,302,-1746,-1970,2125
22265,7237,-1551,818,-1025,-2206,2285
22275,7615,-1353,1320,-303,-2452,2428
22285,8028,-1356,1792,394,-2705,2627
22295,8372,-1310,2010,1004,-2933,2770
22305,8782,-1087,2188,1551,-3127,2896
22315,9065,-865,2312,2023,-3272,2973
22325,8996,-994,2542,2458,-3441,3133
22335,8555,-1268,2706,2930,-3634,3264
22345,8097,-1383,2680,3550,-3767,3345
22355,7670,-1301,2644,4228,-3829,3442
22365,7233,-1134,2520,4916,-3815,3536
22375,6798,-930,2492,5512,-3762,3607
22385,6570,-668,2615,5893,-3669,3666
22395,6639,-374,2507,6170,-3574,3714
22405,6591,-282,2486,6441,-3453,3827
22415,6219,-297,2405,6626,-3327,3978
22425,5801,-238,2213,6738,-3162,4100
22435,5447,-67,2020,6728,-2973,4182
22445,5113,113,1824,6643,-2785,4228
22455,4971,153,1815,6454,-2548,4258
22465,5081,85,1408,6187,-2289,4279
22475,5398,-181,951,6033,-1874,4293
22485,5569,-676,394,6007,-1412,4330
22495,5433,-1125,-310,6057,-888,4323
22505,5142,-1126,-786,6336,-397,4285
22516,4803,-799,-1017,6890,60,4347
22526,4335,-337,-502,7403,445,4490
22536,3836,174,-180,7650,554,4646
22546,3880,753,560,7253,706,4573
22556,3660,892,823,6554,659,4615
22566,3305,455,868,5699,486,4259
22576,3679,-521,1076,5226,240,3868
22586,3370,-1033,2044,4449,115,3759
22596,2902,-1369,1514,3687,-168,3591
22606,3273,-1887,1536,3036,-287,3366
22616,3189,-2274,486,2818,-653,2918
22626,3779,-2095,70,2533,-568,2656
22636,4545,-2029,-309,2637,-311,2538
22646,4621,-2011,-165,2607,-57,2363
22656,4473,-1259,-437,2150,-88,2076
22666,4501,-1060,-879,1795,-107,1966
22676,5642,-777,-1024,1858,42,2359
22686,5725,-1874,-227,2306,709,2373
22696,4865,-1733,294,1943,1259,2039
22706,4489,-984,185,3070,1626,1677
22716,4287,-620,723,4172,1780,1829
22726,4197,120,806,3880,1710,1820
22736,4630,831,721,3276,1685,1456
22746,4803,1089,881,2367,1695,1151
22756,4450,817,559,1617,1561,942
22767,4064,355,452,1116,1396,711
22777,3705,236,163,644,1202,479
22787,3505,449,-44,260,1013,324
22797,3289,664,-154,-11,831,281
22807,2921,648,-3,-222,639,238
22817,2569,452,298,-430,384,166
22827,2262,289,611,-691,41,-9
22837,2187,218,907,-879,-370,-267
22847,2390,326,954,-958,-736,-607
22857,2609,444,1082,-1036,-1085,-920
22867,2853,461,953,-1193,-1346,-1211
22877,3137,218,909,-1229,-1528,-1481
22887,3263,-98,1175,-1227,-1640,-1670
22897,3379,-292,1551,-1214,-1766,-1894
22907,3637,-330,1758,-1331,-1855,-2088
22917,4086,-447,1827,-1384,-1896,-2239
22927,4515,-830,2048,-1559,-1896,-2336
22937,4768,-1278,2270,-1771,-1874,-2471
22947,5082,-1882,2646,-2002,-1866,-2596
22957,5503,-2481,2759,-2140,-1831,-2790
22967,5839,-2915,2836,-2237,-1798,-2922
22977,6056,-3413,2945,-2338,-1744,-3022
22987,6162,-3766,2979,-2521,-1683,-3145
22997,6212,-3999,2973,-2688,-1589,-3245
23007,6024,-4238,3215,-2810,-1534,-3289
23018,5752,-4215,3361,-2938,-1456,-3334
23028,5509,-3915,3325,-3074,-1408,-3396
23038,5333,-3673,3218,-3222,-1363,-3441
23048,5135,-3474,3063,-3395,-1318,-3531
23058,5040,-3229,2787,-3546,-1242,-3605
23068,4858,-3058,2566,-3607,-1149,-3642
23078,4632,-2948,2426,-3708,-1077,-3713
23088,4515,-2781,2135,-3844,-972,-3799
23098,4516,-2792,1838,-3861,-880,-3851
23108,4493,-2972,1672,-3796,-754,-3853
23118,4392,-3113,1517,-3739,-609,-3864
23128,4352,-3139,1360,-3524,-442,-3876
23138,4125,-3082,1420,-3458,-324,-3841
23148,4111,-2923,1254,-3552,-206,-3856
23158,4244,-2790,985,-3650,-38,-3803
23168,4254,-3067,839,-3519,119,-3657
23178,4079,-3611,938,-3343,228,-3527
23188,3859,-3504,955,-3306,320,-3544
23198,3759,-2883,938,-3305,393,-3574
23208,3640,-2651,936,-3360,421,-3460
23218,3645,-3008,732,-3293,444,-3316
23228,3716,-3342,722,-3102,543,-3146
23238,3690,-3151,669,-2974,661,-3064
23248,3624,-2728,779,-2945,746,-3004
23259,3619,-2654,793,-2977,751,-2934
23269,3817,-2978,654,-2916,771,-2829
23279,3969,-3259,517,-2798,841,-2719
23289,3996,-3149,452,-2739,918,-2635
23299,3922,-2877,495,-2795,993,-2522
23309,3663,-2787,343,-2867,1035,-2350
23319,3225,-2856,387,-2863,1066,-2119
23329,2720,-2762,458,-2857,1095,-1897
23339,2297,-2509,663,-2841,1119,-1682
23349,2061,-2197,833,-2826,1091,-1493
23359,2170,-2109,1038,-2755,1040,-1315
23369,2478,-2005,1108,-2829,974,-1234
23379,3051,-1989,938,-2811,894,-1225
23389,3610,-2138,1026,-2893,767,-1193
23399,4088,-2021,811,-3074,652,-1148
23409,4397,-1976,1277,-3087,538,-1039
23419,4376,-2077,1569,-3246,350,-909
23429,4369,-2143,2045,-3491,137,-836
23439,4449,-2267,2370,-3625,-123,-776
23449,4227,-2414,2872,-3553,-416,-607
23460,3664,-2323,3083,-3386,-668,-387
23470,3063,-2190,3435,-3115,-828,-140
23480,2638,-2198,3685,-2839,-886,97
23490,2493,-2294,3858,-2545,-936,249
23500,2718,-2276,4038,-2241,-965,307
23510,3118,-2199,4089,-1932,-988,327
23520,3483,-2322,4222,-1580,-1016,376
23530,3597,-2469,4290,-1183,-1027,462
23540,3569,-2416,4434,-791,-1062,536
23550,3458,-2018,4289,-538,-1062,602
23560,3290,-1952,4319,-176,-1060,714
23570,3008,-2067,4336,-18,-1099,753
23580,2878,-1959,4160,117,-1162,667
23590,3069,-1665,3928,267,-1170,584
23600,3479,-1703,3744,572,-1143,579
23610,3812,-2078,3589,765,-1111,563
23620,4077,-2158,3222,893,-1097,412
23630,4333,-1927,2882,1181,-1073,223
23640,4503,-1492,2813,1419,-1088,112
23650,4540,-1003,2618,1590,-1168,54
23661,4602,-758,2665,1712,-1286,8
23671,4432,-569,2715,1698,-1399,-64
23681,4138,-278,2289,1606,-1499,-184
23691,3927,196,1790,1429,-1513,-277
23701,3709,371,1403,1511,-1399,-263
23711,3210,-50,1776,1761,-1261,-191
23721,2394,-238,1979,1777,-1251,-194
23731,1808,7,1728,1922,-1239,-246
23741,1497,68,1743,2529,-1224,-204
23751,1231,-106,1794,2798,-1139,-19
23761,1108,16,1526,2835,-895,71
23771,998,433,1262,2975,-677,98
23781,955,892,1205,2939,-565,141
23791,928,1218,796,2776,-561,275
23801,1056,1191,270,2661,-627,368
23811,1528,909,46,2572,-714,364
23821,2434,716,-339,2492,-757,300
23831,3690,715,-483,2584,-550,291
23841,4701,850,-360,2455,-100,353
23851,4721,1559,-838,1830,124,414
23862,4525,1943,-436,1748,614,505
23872,3348,1628,17,756,356,772
23882,2847,926,0,261,337,743
23892,2520,-48,-63,60,39,854
23902,2735,-569,-640,139,-144,789
23912,3412,-778,-786,693,-148,897
23922,4021,-1440,-162,1396,-134,1026
23932,4625,-2041,228,2346,-198,995
23942,5470,-2121,574,2994,-348,748
23952,6497,-1262,680,3166,-557,313
23962,7468,-419,1408,2826,-281,-15
23972,7247,-811,1469,2179,-469,-235
23982,7137,-1936,1313,1665,-695,-295
23992,7319,-2384,226,1305,-627,-220
24002,6942,-2290,-42,1148,-161,25
24012,6127,-2256,-613,851,304,363
24022,5459,-2864,-453,798,712,903
24032,4606,-3746,-205,1053,851,1279
24042,3745,-3988,167,1430,591,1259
24052,3698,-2738,-274,1733,233,1065
24063,3847,-1955,-428,2067,-198,1094
24073,3881,-2799,-394,2244,-712,1174
24083,4079,-4009,-382,2796,-967,1111
24093,4169,-4047,-279,3250,-1034,940
24103,4433,-3018,-97,3680,-996,887
24113,3856,-3251,483,3561,-1126,1178
24123,3800,-4579,218,3412,-1084,1134
24133,4384,-4974,111,3424,-883,1182
24143,4478,-4984,-111,3680,-812,1374
24153,4365,-4997,-209,3932,-783,1579
24163,4483,-4951,-170,4232,-713,1718
24173,4532,-5108,4,4419,-671,1802
24183,4672,-5047,-94,4576,-568,1849
24193,4568,-5036,66,4758,-510,1922
24203,4645,-5154,85,5088,-365,2013
24213,4181,-4672,415,5014,-310,2031
24223,3946,-4470,456,4919,-307,2037
24233,3726,-4758,328,4937,-267,2138
24243,3129,-4677,223,4972,-270,2173
24253,2475,-4099,460,4897,-309,2178
24264,1941,-3698,552,4758,-387,2195
24274,1737,-3457,443,4652,-478,2204
24284,1384,-3075,518,4632,-660,2174
24294,1008,-2511,713,4439,-906,2040
24304,959,-2100,612,4208,-1135,1860
24314,1193,-2196,782,3905,-1198,1684
24324,1253,-2186,802,3503,-1251,1447
24334,1876,-1623,744,3017,-1309,1243
24344,2650,-1108,150,2663,-1251,1246
24354,3569,-1200,-581,2715,-1035,1375
24364,4559,-1521,-1188,3054,-645,1620
24374,5269,-2100,-1091,3501,-170,1961
24384,5470,-2816,-820,3679,282,2207
24394,5980,-3146,-240,3759,783,2200
24404,6253,-2744,568,3954,1040,2070
24414,5860,-1967,1220,3764,989,1970
24424,5745,-1398,1152,3401,705,1880
24434,6133,-1544,686,2904,431,1838
24444,6906,-1612,115,2460,404,1684
24454,7078,-1360,-110,2116,485,1574
24465,6652,-1109,124,1832,556,1438
24475,6318,-833,333,1483,615,1319
24485,6235,-643,277,1195,680,1224
24495,5638,-606,719,885,675,1132
24505,4848,-649,1380,326,448,927
24515,4316,-1116,1782,-252,121,728
24525,3841,-2120,2199,-603,-238,566
24535,3413,-3106,2481,-582,-564,369
24545,3397,-3672,2427,-359,-592,354
24555,2859,-3364,2856,-316,-734,167
24565,2259,-3881,2800,17,-1105,178
24575,2168,-3974,2554,552,-1268,164
24585,1476,-5127,1871,1982,-1405,661
24595,1573,-5085,1035,2720,-1312,897
24605,2749,-2169,332,2973,-1076,585
24615,2601,916,-741,3309,-823,721
24625,1627,1957,-168,3423,-699,1059
24635,1249,1549,151,2012,-659,1009
24645,1091,196,320,358,-540,1046
24655,879,-1475,310,-1096,-389,1257
24666,938,-2631,653,-1918,-214,1295
24676,405,-3768,824,-1987,-40,1559
24686,1000,-5843,978,33,4,1383
24696,1427,-4037,1557,1532,490,1403
24706,149,345,1499,1458,454,1434
24716,-821,1970,1706,927,248,1491
24726,-1468,683,1428,-63,-331,1503
24736,-856,-1188,468,-411,-506,1310
24746,174,-1738,108,-285,-486,1362
24756,665,-1010,9,-102,-343,1527
24766,377,-312,134,108,-234,1596
24776,18,-263,294,190,-291,1590
24786,126,-600,435,245,-405,1554
24796,630,-929,538,205,-512,1513
24806,1215,-1065,633,-17,-583,1451
24816,1710,-1177,953,-315,-710,1319
24826,2510,-1593,1355,-623,-840,1083
24836,3552,-2242,1369,-814,-852,904
24846,4369,-3267,1550,-764,-798,787
24856,5197,-5035,1652,-351,-721,672
24867,5928,-6358,1307,-232,-650,713
24877,6878,-6035,1429,-64,-398,469
24887,6807,-5360,1619,-226,-376,379
24897,6119,-5003,1323,-481,-497,351
24907,5618,-5022,999,-583,-536,437
24917,5417,-5016,899,-506,-613,451
24927,5394,-4461,523,-255,-724,428
24937,5216,-3568,246,20,-737,454
24947,4846,-2888,192,72,-734,444
24957,4298,-2571,227,-16,-723,413
24967,3728,-2280,252,-120,-670,359
24977,3151,-2048,324,-196,-629,303
24987,2806,-1829,408,-280,-606,194
24997,2609,-1597,762,-425,-551,124
25007,2431,-1573,914,-471,-591,97
25017,2166,-1583,718,-328,-565,113
25027,1895,-1539,651,-44,-477,159
25037,1638,-1507,598,184,-403,188
25047,1409,-1524,422,367,-286,268
25057,1098,-1421,355,489,-103,388
25068,730,-1161,317,393,53,550
25078,412,-974,325,190,145,694
25088,84,-1177,4,78,140,828
25098,-85,-1782,-296,207,91,883
25108,-49,-2448,-654,593,10,865
25118,379,-2905,-907,1028,37,865
25128,874,-2866,-1028,1166,144,967
25138,1128,-2626,-686,1021,272,1098
25148,1109,-2428,-436,335,347,1243
25158,1133,-3004,-664,-385,220,1345
25168,1616,-4613,-1261,-697,171,1513
25178,2274,-6064,-1907,-744,239,1764
25188,2907,-6738,-2445,-547,370,1969
25198,3262,-7092,-2621,-79,422,2128
25208,3651,-6642,-2278,-29,424,2301
25218,4040,-6216,-1559,-100,239,2529
25228,4554,-6814,-1134,-290,-32,2852
25238,5176,-7609,-697,-135,-164,3113
25248,5397,-7778,-312,117,-293,3311
25258,5290,-7209,12,322,-443,3576
25269,5251,-7118,-189,515,-747,3873
25279,5281,-7228,-68,797,-1038,4206
25289,5192,-6759,340,1103,-1327,4417
25299,5282,-6379,754,1505,-1547,4602
25309,5559,-6172,970,1952,-1694,4672
25319,5613,-5551,1490,2286,-1801,4584
25329,5506,-5015,1877,2537,-1989,4497
25339,5437,-4966,1857,2888,-2198,4428
25349,5439,-5121,1512,3412,-2364,4392
25359,5462,-4804,1117,3903,-2430,4397
25369,5478,-4081,1039,4285,-2587,4362
25379,5636,-3595,668,4812,-2598,4462
25389,6017,-3280,259,5044,-2691,4614
25399,6795,-2799,215,5094,-2857,4520
25409,7513,-1803,220,5222,-3003,4256
25419,8028,-340,437,5338,-3087,3965
25429,8652,1471,279,5179,-2918,3671
25439,9088,2897,206,4911,-2831,3241
25449,9268,3840,578,4449,-2944,2600
25459,8909,4436,1395,4147,-3250,1856
25470,8099,4515,1884,4077,-3624,1076
25480,7821,4617,1396,3856,-3980,38
25490,8990,5387,577,3678,-3984,-1178
25500,11224,6523,-153,3965,-3633,-1923
25510,11558,7182,-3,4060,-3561,-2140
25520,10960,8091,-334,3618,-4208,-3237
25530,9267,8814,-2499,2272,-5073,-5105
25540,12900,12466,-6116,761,-5076,-6384
25550,16266,11585,-8437,-1623,-5270,-7229
25560,19632,10569,-11884,-4669,-5454,-8783
25570,23436,9666,-13746,-7907,-4994,-10615
25580,29758,7879,-14865,-11238,-3977,-12383
25590,-32768,3807,-13476,-14597,-2610,-13515
25600,-32768,-3297,-13639,-17970,-543,-14833
25610,-32768,-14209,-14067,-20685,2116,-15525
25620,-32768,-21836,-14589,-22726,5327,-16400
25630,-32768,-19926,-13379,-23986,8051,-16119
25640,-32768,-12200,-11481,-25661,10362,-14644
25650,31024,-3627,-7479,-27728,12363,-12282
25660,27347,-24032,6526,-19484,13622,-8580
25671,16647,360,1554,-7881,15351,-5510
25681,22385,23998,-4910,-11713,7943,-10694
25691,29715,-7946,-5197,-9458,8878,2134
25701,23150,-18882,3287,-7603,9718,-1446
25711,18462,-8023,4474,-6165,10689,-1626
25721,17809,-6842,1985,-5961,10745,934
25731,15910,-12077,718,-5234,10088,2203
25741,15009,-10367,1191,-4107,9427,2705
25751,14597,-9855,1494,-2734,8598,3620
25761,13742,-8018,2045,-2256,7566,3670
25771,12307,-7015,2821,-1349,6820,3933
25781,10193,-4450,2846,-1799,5605,3268
25791,9918,-5440,1630,-1018,4822,3454
25801,9946,-6614,807,-247,4260,3388
25811,9083,-4751,433,106,3807,3244
25821,8863,-4080,-224,456,3464,3165
25831,8354,-2935,-702,846,3095,3183
25841,7558,-1875,-941,1143,2597,3064
25851,6723,-1533,-1173,1317,2056,2939
25861,5926,-1345,-1366,1431,1522,2783
25872,5338,-1527,-1740,1609,993,2678
25882,4894,-2029,-2195,2037,580,2624
25892,4412,-2000,-2537,2347,366,2485
25902,4031,-1324,-2975,2493,219,2280
25912,3561,-667,-3146,2441,2,2042
25922,2997,-303,-3227,2271,-295,1751
25932,2400,-160,-3295,2140,-467,1566
25942,1911,4,-3288,2020,-598,1383
25952,1565,31,-3293,1936,-716,1210
25962,1269,-41,-3376,1936,-834,1029
25972,1058,-69,-3384,2140,-902,907
25982,864,7,-3193,2241,-921,822
25992,598,196,-3337,2324,-999,703
26002,287,375,-3110,2484,-1068,625
26012,-12,579,-2761,2371,-1098,543
26022,-158,820,-2603,2085,-1146,423
26032,-227,820,-2463,1831,-1229,290
26042,-174,503,-2366,1551,-1301,152
26052,-229,43,-2506,1424,-1336,38
26062,-221,-106,-2125,1147,-1375,-50
26073,-216,141,-2443,1048,-1242,-50
26083,-351,425,-1882,945,-1239,203
26093,-889,581,-1585,653,-1153,188
26103,-686,-161,-910,341,-1119,113
26113,-1583,-104,-1106,-83,-1225,175
26123,-1902,-303,-499,2,-1471,-66
26133,-1965,-555,275,-108,-1688,-166
26143,-1858,-621,374,-271,-1813,-137
26153,-1824,-654,589,-125,-1916,-38
26163,-1819,-763,1489,-25,-1974,133
26173,-2028,-997,2054,-7,-1917,345
26183,-2287,-1327,2314,193,-1760,452
26193,-2657,-1647,2798,166,-1681,587
26203,-3014,-1744,3002,43,-1729,657
26213,-3197,-1845,2850,110,-1745,627
26223,-3120,-1701,2551,-22,-1847,561
26233,-2833,-965,1750,-375,-1868,722
26243,-2859,-396,1270,-358,-1949,928
26253,-2899,-568,1932,-450,-2156,1008
26263,-2812,-1011,2234,-717,-2361,1119
26273,-2613,-1609,2268,-593,-2600,1190
26284,-2339,-1928,2366,-353,-2885,1269
26294,-1908,-1662,2273,-274,-3070,1367
26304,-1464,-796,2332,-427,-3159,1422
26314,-1030,240,2075,-698,-3019,1469
26324,-943,841,1751,-978,-2819,1484
26334,-808,778,1541,-1390,-2641,1240
26344,-958,502,992,-1861,-2283,983
26354,-1168,-110,669,-1816,-2195,526
26364,-1349,-1004,1098,-1186,-2333,85
26374,-1166,-1617,1629,-979,-2944,-199
26384,-811,-1815,2523,-1090,-3805,-457
26394,146,-2099,3364,-1181,-4596,-933
26404,1582,-2588,4450,-1471,-5298,-1357
26414,4028,-3076,5946,-2163,-5469,-1546
26424,6531,-3219,5178,-3099,-3938,-1732
26434,7882,-3088,4025,-3671,-3458,-1856
26444,7575,-3591,3614,-3310,-2645,-1443
26454,6268,-4288,4541,-3079,-2336,-894
26464,4933,-4014,4047,-3417,-2114,-835
26474,4464,-3781,4409,-3467,-2002,-1315
26484,4519,-3902,4243,-3273,-1969,-1537
26494,4465,-3302,5413,-3450,-1991,-1541
26504,4646,-2646,4562,-3439,-1887,-1601
26514,3944,-3507,5039,-2838,-1750,-1106
26524,3626,-3160,5559,-3044,-1819,-1473
26535,3642,-1953,5465,-3515,-1774,-1699
26545,3643,-1721,5223,-3927,-1768,-1925
26555,3733,-2657,4732,-4070,-1836,-1661
26565,3743,-4186,4409,-3970,-1831,-1505
26575,4014,-5337,4094,-3660,-1708,-1478
26585,4009,-5737,3844,-3021,-1441,-1487
26595,4033,-5594,3952,-2178,-1224,-1443
26605,3944,-5137,4024,-1537,-1088,-1339
26615,3870,-4395,3899,-1164,-959,-1292
26625,3677,-3554,3730,-1114,-781,-1254
26635,3399,-3027,3396,-1208,-556,-1192
26645,2888,-2630,3076,-1417,-382,-1126
26655,2461,-2413,2912,-1481,-278,-1083
26665,2162,-2274,2996,-1492,-254,-961
26675,2115,-2436,3240,-1426,-239,-806
26685,2281,-2726,3236,-1343,-229,-666
26695,2502,-2887,2747,-1052,-234,-622
26705,2786,-2773,2687,-646,-157,-610
26715,2981,-2455,2746,-454,-36,-628
26725,2967,-2133,2552,-338,101,-672
26735,2952,-2061,2502,-167,195,-727
26745,3000,-2000,2393,-1,251,-738
26755,3008,-1885,2430,91,300,-729
26765,3011,-1763,2542,120,203,-784
26775,2975,-1864,2598,246,-4,-847
26786,3061,-2325,2469,651,-232,-935
26796,3103,-2863,1911,1075,-320,-973
26806,3256,-3593,1928,1497,-311,-1183
26816,3427,-3933,2440,1607,-154,-1560
26826,3102,-3401,1941,1429,183,-1948
26836,2818,-2830,1131,1610,351,-2323
26846,3618,-2868,703,1803,326,-2822
26856,3348,-2155,-802,1651,612,-2613
26866,2900,-106,-30,1210,627,-2650
26876,3771,2235,391,517,785,-2884
26886,5344,2023,1244,-212,955,-2684
26896,6041,-211,216,-1256,642,-1770
26906,7005,-4473,-172,-237,498,-494
26916,7658,-7237,394,-89,756,201
26926,7070,-6921,-1154,770,1257,298
26936,6547,-5443,-247,2065,1522,805
26946,6080,-4422,1216,2514,1719,1280
26956,6197,-6002,3896,3250,1834,1419
26966,4143,-6306,3118,2187,1147,937
26976,2888,-1491,846,2089,749,-1
26986,2540,1640,1812,3189,623,-279
26996,1866,1966,3084,1725,-54,401
27006,1756,812,1688,311,-729,595
27016,2594,-1518,941,-114,-946,484
27026,3201,-3294,328,-86,-819,468
27037,3289,-3762,332,371,-537,532
27047,3149,-3348,1045,797,-263,628
27057,2890,-2401,1341,990,-110,602
27067,2697,-1781,1944,1076,-21,679
27077,2469,-1583,2118,783,-46,775
27087,2300,-1576,1941,463,-83,810
27097,2219,-1739,1716,271,-100,831
27107,2020,-1820,1492,145,-132,870
27117,1816,-1788,1342,132,-157,878
27127,1642,-1618,1103,175,-155,867
27137,1473,-1479,748,315,-118,868
27147,1358,-1467,675,586,-68,868
27157,960,-1317,895,883,39,748
27167,1305,-1491,915,966,-164,711
27177,1405,-1230,1063,948,-220,883
27187,1555,-909,968,1176,-273,938
27197,1675,-714,1304,1206,-284,906
27207,1841,-552,1213,1046,-286,910
27217,1818,-533,1053,974,-290,983
27227,1813,-616,1041,931,-356,987
27237,1945,-659,938,885,-367,989
27247,2126,-677,592,970,-415,957
27257,2509,-871,787,1196,-430,873
27267,2930,-973,1066,1262,-352,821
27278,3312,-919,1288,1312,-230,762
27288,3542,-740,1422,1246,-160,679
27298,3709,-466,1341,997,-130,586
27308,3883,-257,1190,665,-103,485
27318,4164,-323,1144,369,-94,382
27328,4754,-545,1031,78,-94,258
27338,5571,-753,884,-134,-45,120
27348,6266,-976,772,-223,36,-6
27358,6547,-1306,681,-204,78,-103
27368,6566,-1638,544,-235,38,-225
27378,6525,-1805,527,-227,8,-426
27388,6351,-1756,730,-310,-35,-636
27398,5982,-1413,817,-497,-95,-790
27408,5543,-1110,664,-662,-163,-841
27418,5200,-1150,560,-753,-197,-805
27428,4917,-1352,582,-842,-235,-761
27438,4798,-1322,485,-916,-253,-796
27448,4800,-1085,437,-893,-249,-881
27458,4807,-943,551,-885,-245,-934
27468,4729,-888,667,-1009,-278,-1013
27479,4739,-774,718,-1197,-300,-1156
27489,4821,-806,792,-1400,-310,-1310
27499,4884,-933,728,-1631,-317,-1450
27509,4864,-1043,577,-1815,-296,-1553
27519,4779,-1161,396,-1946,-213,-1605
27529,4642,-1354,358,-2081,-116,-1627
27539,4460,-1519,206,-2198,-24,-1626
27549,4263,-1672,107,-2193,55,-1611
27559,4085,-1794,168,-2126,109,-1592
27569,3941,-1786,251,-2125,130,-1597
27579,3833,-1639,237,-2169,136,-1608
27589,3750,-1657,266,-2177,142,-1591
27599,3691,-1762,231,-2175,147,-1567
27609,3682,-1785,146,-2147,176,-1522
27619,3674,-1728,94,-2087,242,-1479
27629,3688,-1706,97,-2008,324,-1412
27639,3713,-1755,43,-1915,375,-1344
27649,3785,-1819,-30,-1742,455,-1277
27659,3828,-1779,-33,-1616,553,-1200
27669,3855,-1527,-28,-1645,634,-1145
27680,3859,-1291,-53,-1696,690,-1113
27690,3882,-1236,-96,-1790,727,-1086
27700,3910,-1247,-186,-1852,775,-1043
27710,3923,-1317,-167,-1879,823,-999
27720,3895,-1306,-105,-1938,846,-982
27730,3934,-1226,-140,-1966,880,-974
27740,4072,-1203,-88,-1919,926,-928
27750,4159,-1245,-31,-1948,969,-877
27760,4150,-1198,36,-2023,997,-852
27770,4116,-1131,153,-2156,1015,-853
27780,4026,-1092,308,-2304,1010,-843
27790,3972,-1273,376,-2325,974,-808
27800,3910,-1534,367,-2315,954,-758
27810,3854,-1625,338,-2225,954,-731
27820,3733,-1620,448,-2125,974,-681
27830,3539,-1574,514,-2080,996,-620
27840,3311,-1610,656,-2057,1003,-539
27850,3127,-1605,781,-2066,1013,-468
27860,2990,-1638,826,-2008,1031,-397
27870,2914,-1816,831,-1878,1024,-322
27881,2883,-2092,940,-1635,1028,-246
27891,2943,-2269,1068,-1354,1053,-175
27901,3002,-2145,1218,-1139,1108,-125
27911,3104,-1778,1365,-1080,1138,-102
27921,3316,-1633,1494,-1120,1096,-50
27931,3677,-1902,1449,-1107,1039,21
27941,4105,-2356,1265,-1053,992,79
27951,4565,-2405,1063,-1018,955,82
27961,4928,-2141,812,-942,943,72
27971,5197,-2029,692,-906,888,115
27981,5354,-2109,678,-929,761,182
27991,5430,-2175,624,-952,594,190
28001,5506,-2074,546,-931,418,128
28011,5426,-1865,526,-908,211,36
28021,5374,-1715,449,-978,-15,-56
28031,5348,-1715,416,-1022,-237,-139
28041,5205,-1865,565,-1065,-486,-217
28051,5043,-1951,773,-1117,-760,-302
28061,4873,-2087,965,-1080,-1020,-358
28071,4536,-2167,1061,-1088,-1258,-363
28082,4202,-2025,1044,-1100,-1412,-340
28092,3742,-1791,1152,-1117,-1550,-273
28102,3181,-1574,1337,-1169,-1666,-176
28112,2600,-1319,1426,-1220,-1752,-84
28122,2027,-1230,1543,-1219,-1813,-32
28132,1521,-1269,1529,-1187,-1845,-3
28142,1139,-1315,1564,-1064,-1822,-18
28152,838,-1286,1710,-874,-1804,-55
28162,641,-1383,1847,-476,-1845,-49
28172,544,-1892,1794,317,-1920,55
28182,581,-2315,2028,1130,-1901,219
28192,656,-2069,2197,1723,-1781,327
28202,690,-1219,2339,1986,-1586,466
28212,572,-506,2273,1959,-1354,697
28222,427,-737,2364,1750,-1219,883
28232,480,-1281,2091,1720,-1048,994
28242,633,-1460,2055,1942,-873,1093
28252,988,-1159,2006,2124,-809,1176
28262,1578,-908,1748,2349,-784,1318
28272,2341,-1040,1703,2462,-760,1439
28282,3082,-1350,1328,2545,-775,1461
28293,4086,-1928,1541,2746,-688,1487
28303,4863,-2267,1183,2644,-605,1410
28313,5706,-2699,883,2762,-537,1328
28323,6166,-3040,473,3012,-476,1340
28333,6655,-3111,259,3098,-426,1329
28343,7326,-3036,-82,2899,-361,1393
28353,7866,-3606,-317,2811,-302,1515
28363,7952,-4515,-540,2504,-248,1562
28373,8006,-4958,-1066,2460,-64,1484
28383,7819,-5176,-1230,2611,48,1531
28393,7250,-5104,-1100,2670,43,1554
28403,6465,-4653,-992,2613,-52,1483
28413,5870,-4345,-870,2573,-158,1458
28423,5423,-4330,-732,2564,-271,1509
28433,4950,-4424,-626,2581,-376,1517
28443,4444,-4320,-466,2661,-478,1466
28453,4171,-4119,-320,2716,-539,1401
28463,3903,-4039,-135,2763,-616,1375
28473,3629,-4112,59,2769,-697,1377
28483,3235,-4098,219,2864,-750,1348
28493,2865,-3902,494,2982,-754,1342
28503,2482,-3652,687,3105,-739,1384
28513,2072,-3426,1056,3198,-749,1459
28523,1780,-3315,1373,3160,-847,1522
28533,1584,-3356,1424,3111,-976,1514
28544,1436,-3301,1375,2999,-1150,1458
28554,1393,-3274,1194,3008,-1300,1373
28564,1468,-3254,952,3043,-1414,1256
28574,1654,-3181,616,3178,-1452,1043
28584,1819,-2928,432,3319,-1378,940
28594,1814,-2532,79,3105,-1268,1053
28604,2002,-2152,199,2678,-1121,1100
28614,2354,-1875,217,1902,-1075,1152
28624,2509,-2036,227,1473,-842,1391
28634,2851,-2965,541,1750,-609,1537
28644,3550,-4114,913,2345,-245,1710
28654,4010,-4699,1117,3296,306,2041
28664,3332,-4589,2081,3882,466,2198
28674,2190,-3194,1862,3474,-164,1931
28684,2465,-981,897,2924,-599,1581
28694,3136,-1410,617,2870,-880,2037
28704,3234,-3356,46,2521,-1145,2119
28714,3787,-3312,-117,2651,-994,2024
28724,3554,-2405,165,2812,-1027,2107
28734,3186,-2309,365,2818,-1121,2209
28744,3232,-2453,446,2726,-1165,2250
28754,3195,-2463,473,2674,-1202,2237
28764,2928,-2487,603,2662,-1261,2212
28774,2793,-2678,726,2690,-1320,2189
28784,2729,-2843,829,2694,-1367,2144
28795,2769,-2974,899,2722,-1360,2167
28805,2805,-2956,1012,2690,-1333,2271
28815,2613,-3003,1154,2653,-1319,2347
28825,2330,-3007,1258,2512,-1356,2360
28835,2088,-2976,1302,2318,-1437,2296
28845,1992,-2849,1259,2066,-1500,2169
28855,1838,-2766,1044,1833,-1603,2001
28865,1619,-2829,1052,1628,-1737,1890
28875,1540,-2803,1046,1420,-1819,1707
28885,1630,-2580,806,1244,-1745,1530
28895,1735,-2586,463,1348,-1562,1463
28905,1628,-2365,161,1566,-1385,1212
28915,1344,-1799,-321,1864,-1362,938
28925,1808,-1691,-540,2000,-1042,872
28935,569,-1045,-415,1741,-810,1235
28945,1047,-540,-346,1104,-732,1034
28955,979,-590,-387,780,-498,1452
28965,873,-1267,-394,941,-448,1515
28975,1104,-2169,-484,1380,-434,1544
28985,1204,-2546,-625,1844,-352,1751
28995,1121,-2488,-387,2047,-235,2067
29005,927,-2221,-388,1576,-242,2144
29015,1212,-2401,-402,1499,-244,2189
29025,1429,-2966,-258,1601,-173,2243
29035,1382,-2902,-87,1678,-101,2272
29046,1546,-2380,206,1436,-176,2177
29056,1898,-2456,495,1099,-424,2028
29066,2391,-3362,298,597,-801,1824
29076,3413,-3886,-368,312,-1026,1685
29086,3778,-4698,-340,379,-1164,1756
29096,3611,-5629,63,279,-1204,1774
29106,3432,-6089,284,140,-1129,1648
29116,3248,-5618,330,-197,-1041,1579
29126,3128,-5034,281,-485,-898,1619
29136,2628,-5464,537,-675,-803,1721
29146,2363,-5583,48,-723,-720,1732
29156,2603,-5780,-28,-564,-650,1863
29166,2742,-5986,-386,-460,-609,1916
29176,2846,-5408,38,-1000,-505,1933
29186,3514,-4451,-760,-1369,-532,1689
29196,3251,-5713,-203,-1216,-602,2099
29206,3130,-5928,-178,-1083,-585,2101
29216,3454,-5324,-109,-935,-470,2219
29226,3713,-5056,37,-1000,-286,2377
29236,3690,-6017,70,-1230,-188,2442
29246,3881,-6831,-166,-1156,-218,2478
29256,4090,-6766,-531,-1105,-191,2640
29266,4061,-6790,-669,-1217,-191,2827
29276,3905,-7189,-907,-1325,-273,3080
29287,3614,-7468,-114,-1513,-476,3289
29297,3675,-6793,-65,-1459,-766,3372
29307,3696,-6536,344,-976,-1125,3820
29317,4064,-6006,548,-573,-1413,4063
29327,4464,-5492,884,-304,-1653,4207
29337,4888,-5434,1188,6,-1877,4259
29347,5285,-5689,1466,491,-2010,4288
29357,5601,-5636,1737,1056,-2012,4255
29367,5848,-5276,1771,1503,-1981,4143
29377,6098,-5192,1459,1871,-2008,4002
29387,6258,-4743,1531,2166,-2004,3838
29397,6473,-3979,1657,2424,-2099,3677
29407,6588,-3560,1976,2548,-2484,3617
29417,7269,-2858,1473,2836,-2650,3474
29427,8021,-1637,828,3377,-2658,3347
29437,8699,-115,904,3867,-2484,3223
29447,9331,1396,742,4223,-2327,2879
29457,9602,2565,993,4523,-2255,2458
29467,9441,3461,985,4713,-2177,1904
29477,9112,3984,1430,4856,-2035,1331
29488,9413,3982,1574,4908,-1829,669
29498,9509,3604,2117,5062,-1763,-28
29508,10126,3434,2379,5163,-1658,-762
29518,11159,3116,2704,5712,-1591,-1481
29528,11531,2883,2718,5845,-1731,-1967
29538,11745,3189,2162,5367,-1999,-2669
29548,11260,3025,1504,4429,-2681,-3452
29558,11439,3347,-191,2882,-3460,-4459
29568,12415,5186,-3613,875,-4487,-5829
29578,16718,5009,-8604,-711,-4890,-7257
29588,20002,5365,-10446,-2487,-4862,-9121
29598,25319,5928,-10338,-3921,-4565,-11233
29608,31372,4788,-7643,-6036,-3966,-13230
29618,-32768,664,-5222,-8273,-3310,-15324
29628,-32768,-6101,-5607,-11002,-2197,-17379
29638,-32768,-14727,-6361,-13705,-723,-18988
29648,-32768,-20274,-7106,-16222,1526,-20353
29658,-32768,-21134,-6569,-18406,3580,-20901
29668,-32768,-17757,-4756,-20433,5424,-20681
29678,-32768,-11358,-862,-22033,7372,-19510
29689,32550,-1605,16084,-23576,9825,-18298
29699,-32768,-14826,-22874,3664,6751,-8321
29709,28961,23278,29033,-14901,9965,-16855
29719,23655,-993,2630,-13639,6677,-5890
29729,28168,-5132,-6565,-16282,7919,-9674
29739,29432,-2211,-1844,-14718,8696,-5770
29749,23226,342,-1113,-16215,6960,-4161
29759,17229,1753,-2975,-16195,5471,-2234
29769,16804,2132,-2040,-15987,4782,-527
29779,17980,-1701,-2008,-14746,4306,1277
29789,16634,-2528,-1142,-12133,4218,2356
29799,15371,-1914,-169,-9221,4220,2727
29809,13048,349,389,-6421,3878,2897
29819,12145,2336,-497,-4276,3636,3077
29829,10982,3121,-2055,-2776,3071,3173
29839,9272,3826,-3240,-1499,2483,3176
29849,7836,4781,-4518,-561,1905,3036
29859,6065,5095,-5060,131,1262,2952
29869,4483,4424,-5584,645,640,2838
29879,3777,3306,-5962,1325,296,2840
29890,3460,2198,-6164,1990,94,2901
29900,2995,1531,-5989,2507,-125,2938
29910,2292,990,-5708,2948,-356,2863
29920,1737,1034,-5477,3222,-509,2771
29930,1270,1203,-5027,3348,-648,2742
29940,691,1144,-4664,3359,-776,2757
29950,215,886,-4629,3359,-883,2819
29960,-163,631,-4400,3253,-984,2862
29970,-339,428,-4000,2995,-1115,2789
29980,-525,363,-4076,2739,-1197,2848
29990,-858,152,-4008,2528,-1257,2962
30000,-1304,-197,-3823,2236,-1361,2986
30010,-1525,-580,-3564,1896,-1571,2919
30020,-1150,-1424,-3167,1286,-1776,3260
30030,-1364,-362,-3737,1168,-2065,2875
30040,-1269,53,-2944,1127,-2224,2643
30050,-1161,35,-2638,713,-2359,2408
30060,-1040,-142,-2464,278,-2478,2221
30070,-1080,-281,-2127,-50,-2521,2131
30080,-1247,-492,-2048,-71,-2543,2130
30091,-1675,-668,-1853,19,-2631,1966
30101,-1862,-823,-1425,104,-2882,1688
30111,-1922,-1065,-1250,237,-3089,1467
30121,-1925,-1536,-912,640,-3361,1146
30131,-1606,-2114,-497,961,-3736,693
30141,-838,-2474,-228,1182,-4084,389
30151,-18,-2447,-254,1410,-4418,205
30161,938,-2313,110,1707,-4781,73
30171,2193,-2196,751,1658,-4865,73
30181,3603,-1978,1499,1449,-4389,-24
30191,4133,-1835,1767,1233,-4137,-192
30201,3962,-2025,2436,1320,-4300,-204
30211,3767,-2430,2996,1475,-4611,6
30221,4086,-2065,3010,958,-4678,138
30231,4691,-942,2889,237,-4521,-23
30241,4998,-390,3453,-484,-4470,-300
30251,4702,-1021,4237,-826,-4813,-526
30261,4264,-2043,5089,-582,-5127,-728
30271,4057,-2172,5408,119,-4964,-982
30281,3909,-1018,5712,495,-4389,-1266
30292,3482,424,5773,480,-3752,-1581
30302,2820,1035,5119,107,-3363,-1809
30312,2480,635,3703,-217,-3215,-2024
30322,2556,-441,2839,-398,-3141,-2201
30332,2809,-1474,2545,-375,-3185,-2357
30342,2768,-2164,2653,-8,-3230,-2370
30352,2420,-1773,2994,325,-3316,-2289
30362,2110,-887,3272,710,-3273,-2231
30372,1985,500,3685,270,-3071,-2159
30382,1872,1919,3173,-687,-2964,-2178
30392,1928,1550,2647,-1056,-2770,-2141
30402,1925,135,2884,-1397,-2647,-2068
30412,2074,-290,2853,-1589,-2616,-2155
30422,2586,-475,3328,-1402,-2606,-2206
30432,3127,-637,4179,-1187,-2512,-2190
30442,3416,-385,4992,-1066,-2278,-2142
30452,3396,-217,5219,-883,-1905,-2082
30462,3588,-243,5168,-946,-1531,-2056
30472,4103,-327,4568,-963,-1040,-2094
30482,4707,-633,4152,-970,-603,-2112
30493,4988,-842,3758,-975,-352,-2116
30503,5067,-846,3414,-957,-313,-2151
30513,5071,-867,3361,-1068,-457,-2165
30523,5369,-844,3335,-1369,-672,-2226
30533,6163,-1153,3421,-1568,-870,-2265
30543,7187,-1701,3615,-1737,-1053,-2283
30553,8139,-2084,3628,-1857,-1218,-2376
30563,8625,-2177,3446,-1921,-1424,-2478
30573,8163,-2224,3597,-1848,-1739,-2461
30583,6977,-2229,3835,-1775,-2071,-2350
30593,5879,-2287,4152,-1605,-2279,-2238
30603,5062,-2266,4233,-1369,-2263,-2096
30613,4391,-2036,4358,-1169,-2056,-1951
30623,3858,-1663,4407,-1178,-1776,-1827
30633,3607,-1333,4363,-1359,-1531,-1743
30643,3665,-1112,3962,-1714,-1264,-1632
30653,3782,-1294,3510,-1873,-1060,-1403
30663,3737,-1890,3233,-1748,-954,-1106
30673,3582,-2183,3064,-1528,-883,-884
30683,3463,-1729,2869,-1276,-761,-721
30694,3400,-1162,2880,-1052,-659,-509
30704,3218,-892,2737,-978,-589,-260
30714,2996,-843,2531,-997,-513,-81
30724,2889,-913,2134,-997,-376,37
30734,2888,-1086,1703,-850,-204,169
30744,2761,-1390,1661,-490,-58,344
30754,2534,-1399,1542,-166,54,504
30764,2615,-1264,1552,162,111,614
30774,2952,-1304,1633,465,143,713
30784,3437,-1433,1820,721,182,781
30794,4082,-1424,1931,884,221,821
30804,4880,-1215,1924,949,299,866
30814,5571,-1086,2047,1022,417,938
30824,5868,-1124,2167,965,426,996
30834,6035,-1097,2114,861,338,1004
30844,6264,-1116,1957,860,269,994
30854,6430,-1208,1914,875,211,992
30864,6559,-1208,1718,864,179,938
30874,6670,-1216,1363,941,176,896
30884,6653,-1272,969,1123,230,904
30895,6357,-1290,775,1310,313,890
30905,5853,-1065,599,1412,397,822
30915,5409,-801,411,1471,475,797
30925,5037,-746,228,1528,538,835
30935,4835,-842,71,1558,589,851
30945,4552,-848,-115,1480,650,872
30955,4266,-666,-222,1347,671,858
30965,4073,-564,-172,1227,681,846
30975,3886,-577,-36,1037,605,873
30985,3704,-729,-117,866,494,830
30995,3758,-1087,-190,886,423,771
31005,3918,-1527,-244,1029,432,773
31015,3921,-1796,-239,1303,456,774
31025,3814,-1876,-131,1513,490,792
31035,3673,-1941,-27,1764,556,819
31045,3499,-1996,205,1892,643,888
31055,3251,-2026,630,1814,705,917
31065,3105,-1669,540,1559,749,781
31075,3252,-1732,538,1867,793,965
31085,2817,-1905,939,1660,770,1241
31096,2725,-1602,628,1438,771,1095
31106,2998,-1659,803,1543,899,1138
31116,2809,-1780,958,1442,956,1240
31126,2618,-1751,855,1408,1000,1259
31136,2625,-1849,904,1508,1089,1258
31146,2595,-1839,1162,1512,1137,1261
31156,2489,-1692,1481,1389,1131,1259
31166,2287,-1671,1664,1172,1042,1246
31176,2275,-1902,1792,972,952,1234
31186,2376,-2239,1672,868,887,1229
31196,2652,-2452,1644,850,855,1215
31206,2841,-2491,1610,818,812,1188
31216,3130,-2406,1604,737,747,1150
31226,3331,-2260,1600,507,706,1047
31236,3688,-2285,1578,267,624,959
31246,4044,-2614,1410,70,521,937
31256,4345,-2819,1144,16,501,885
31266,4523,-2547,855,-28,514,851
31276,4423,-2298,767,-68,524,901
31286,4097,-2315,822,-109,526,976
31297,3830,-2414,789,-83,509,1010
31307,3633,-2338,809,-46,507,1018
31317,3403,-2016,843,-24,493,1027
31327,3168,-1801,923,39,419,1035
31337,2918,-1630,1020,71,310,1047
31347,2725,-1357,1086,69,192,990
31357,2574,-1030,1109,19,66,914
31367,2455,-823,1189,-59,-94,866
31377,2402,-708,1271,-133,-241,779
31387,2413,-654,1318,-174,-369,680
31397,2453,-514,1310,-242,-473,574
31407,2510,-353,1193,-254,-540,482
31417,2562,-332,1371,-209,-562,411
31427,2628,-322,1553,-260,-620,303
31437,2756,-316,1648,-322,-686,161
31447,2936,-218,1646,-404,-702,-5
31457,3131,-130,1689,-471,-698,-146
31467,3277,-233,1719,-583,-675,-267
31477,3371,-297,1724,-713,-645,-396
31487,3472,-306,1686,-794,-593,-536
31498,3567,-356,1724,-845,-531,-639
31508,3583,-525,1720,-920,-478,-730
31518,3598,-647,1597,-1019,-431,-829
31528,3705,-765,1544,-1064,-399,-925
31538,3845,-887,1551,-1090,-367,-988
31548,3994,-978,1530,-1104,-358,-1065
31558,4034,-1026,1580,-1123,-356,-1125
31568,4021,-1032,1599,-1174,-388,-1183
31578,4072,-1092,1521,-1208,-438,-1235
31588,4173,-1146,1437,-1201,-456,-1281
31598,4215,-1124,1463,-1194,-451,-1319
31608,4150,-1057,1497,-1241,-437,-1351
31618,4066,-1030,1519,-1342,-459,-1396
31628,4083,-1082,1442,-1417,-475,-1428
31638,4133,-1065,1355,-1497,-462,-1477
31648,4165,-1073,1311,-1510,-451,-1513
31658,4148,-1197,1298,-1505,-443,-1538
31668,4108,-1229,1342,-1510,-444,-1585
31678,4068,-1158,1411,-1559,-435,-1663
31688,4050,-1030,1385,-1659,-429,-1727
31699,4084,-960,1275,-1743,-392,-1747
31709,4090,-1059,1220,-1743,-342,-1733
31719,4055,-1279,1285,-1674,-284,-1731
31729,4023,-1361,1258,-1633,-215,-1763
31739,4016,-1295,1305,-1629,-150,-1809
31749,4053,-1194,1240,-1651,-87,-1839
31759,4092,-1244,1327,-1696,-28,-1856
31769,4206,-1383,1271,-1777,18,-1870
31779,4401,-1588,1328,-1758,80,-1871
31789,4569,-1665,1304,-1720,159,-1858
31799,4689,-1692,1244,-1689,218,-1850
31809,4773,-1668,1239,-1682,316,-1791
31819,4782,-1700,1298,-1711,386,-1711
31829,4803,-1827,1305,-1692,450,-1618
31839,4932,-1987,1373,-1664,468,-1526
31849,5250,-1909,1364,-1608,515,-1454
31859,5721,-1860,1388,-1485,576,-1329
31869,6008,-1921,1581,-1301,563,-1219
31879,6238,-1975,1681,-1129,526,-1159
31889,6424,-1788,1648,-1045,562,-1126
31900,6742,-1509,1585,-1076,666,-1055
31910,6713,-1296,1599,-1299,750,-930
31920,6398,-1142,1426,-1615,775,-823
31930,5919,-1220,1221,-1798,785,-630
31940,5330,-1304,1023,-1836,789,-433
31950,4865,-1194,991,-1695,798,-263
31960,4423,-888,1094,-1512,767,-123
31970,3950,-572,1317,-1375,668,-24
31980,3531,-251,1493,-1387,506,-11
31990,3094,-28,1747,-1501,318,37
32000,2789,70,1968,-1739,94,18
32010,2607,98,2053,-2029,-127,22
32020,2557,-246,1719,-2205,-294,4
32030,2563,-882,1544,-2246,-425,66
32040,2405,-1307,1566,-2119,-437,122
32050,2246,-1427,1480,-1921,-394,153
32060,2043,-1376,1548,-1480,-334,271
32070,1824,-1073,1564,-918,-212,421
32080,1651,-454,1402,-357,-84,586
32090,1441,-45,494,-58,-71,675
32101,1802,794,2110,-980,261,912
32111,361,1486,1803,-1638,205,1279
32121,563,263,1612,-1132,406,886
32131,767,-694,1387,-933,283,1149
32141,590,-763,483,-246,509,1620
32151,316,-311,382,438,574,1844
32161,131,18,604,945,532,2049
32171,85,-164,1055,1316,529,2233
32181,241,-447,1613,1471,621,2251
32191,546,-598,1845,1539,760,2176
32201,763,-700,1899,1439,818,2154
32211,624,-538,1545,926,563,1973
32221,768,165,949,356,204,1438
32231,952,719,524,128,-12,1159
32241,1072,294,108,132,-185,1167
32251,1599,-756,-258,290,-330,1146
32261,2477,-1730,-331,538,-267,1089
32271,3364,-2312,-180,674,-160,936
32281,4433,-2794,190,719,-43,683
32291,5566,-3495,738,765,33,425
32302,6619,-4267,1070,655,98,240
32312,7699,-4872,940,435,118,118
32322,8574,-5841,783,402,92,176
32332,8488,-6913,846,215,-89,347
32342,7677,-7446,506,186,-179,360
32352,7053,-7126,241,313,0,422
32362,6759,-6281,60,546,93,596
32372,6527,-5552,-81,718,-38,686
32382,6342,-4937,-253,866,-136,662
32392,6155,-4540,-37,956,-116,705
32402,5838,-4051,169,913,-102,731
32412,5510,-3764,511,1021,-80,824
32422,5187,-3787,650,1068,-78,973
32432,5100,-3909,718,1229,-18,1112
32442,4973,-4001,715,1510,79,1309
32452,4508,-3917,1104,1784,193,1567
32462,3787,-3532,1537,1852,259,1774
32472,3363,-3458,1957,1852,329,1910
32482,3029,-3446,2336,1843,371,2020
32492,2458,-3318,2697,1872,292,2112
32503,1947,-3198,3079,1850,157,2177
32513,1601,-3257,3175,1839,-65,2181
32523,1606,-3475,2958,1877,-226,2184
32533,1604,-3579,2673,2090,-330,2164
32543,1425,-3517,2558,2262,-423,2207
32553,1212,-3379,2553,2288,-570,2107
32563,1331,-3243,2378,2195,-774,2048
32573,1330,-3419,2233,2097,-1016,1999
32583,1596,-3246,1926,1859,-1194,1884
32593,1941,-2596,1689,1499,-1308,1869
32603,2170,-2163,1257,1094,-1434,1921
32613,2677,-2245,389,1115,-1528,2075
32623,3257,-3038,213,1682,-1414,2342
32633,3546,-3521,255,2259,-1196,2428
32643,3894,-3238,337,2935,-885,2470
32653,3599,-2704,429,3252,-790,2578
32663,3573,-2525,742,3308,-602,2697
32673,3328,-2501,969,2985,-488,2756
32683,2978,-2299,1015,2515,-534,2714
32693,2946,-2702,966,2383,-727,2678
32704,2743,-2978,783,2288,-914,2589
32714,2749,-2780,574,2314,-1088,2540
32724,2689,-2529,461,2259,-1207,2470
32734,2672,-2467,288,2229,-1337,2390
32744,2658,-2553,268,2171,-1401,2343
32754,2526,-2527,334,2086,-1424,2255
32764,2383,-2294,391,1924,-1453,2164
32774,2334,-2247,234,1829,-1517,2096
32784,2344,-2465,178,1833,-1551,2033
32794,2345,-2438,190,1893,-1556,1967
32804,2293,-2239,203,1884,-1541,1926
32814,2229,-2106,281,1765,-1527,1877
32824,2155,-2211,388,1614,-1515,1819
32834,2131,-2427,400,1493,-1528,1729
32844,2174,-2579,411,1464,-1517,1674
32854,2141,-2659,510,1502,-1516,1636
32864,2094,-2750,580,1552,-1511,1607
32874,2071,-2787,611,1560,-1481,1591
32884,2018,-2814,655,1546,-1446,1581
32894,2004,-2710,724,1447,-1383,1610
32905,1912,-2732,739,1396,-1334,1664
32915,1970,-2865,782,1375,-1289,1756
32925,1840,-2985,946,1299,-1230,1760
32935,1690,-2870,1044,1129,-1213,1729
32945,1785,-2610,1003,879,-1204,1718
32955,1728,-2662,999,659,-1226,1670
32965,1780,-2871,1064,482,-1199,1677
32975,1779,-2984,1081,445,-1192,1654
32985,1707,-2926,1033,533,-1174,1721
32995,1701,-2942,1076,743,-1176,1786
33005,1797,-2918,1174,954,-1173,1878
33015,1782,-2831,1211,1018,-1186,1905
33025,1836,-2714,1298,1039,-1206,1907
33035,1792,-2632,1362,953,-1227,1870
33045,1710,-2650,1335,745,-1236,1789
33055,1820,-2490,1282,370,-1187,1666
33065,1832,-2547,1128,120,-1176,1552
33075,1822,-3072,1116,192,-1171,1606
33085,1800,-3408,1084,430,-1177,1663
33095,1802,-3338,963,667,-1127,1744
33106,1760,-3074,877,632,-1068,1759
33116,1698,-2975,762,416,-1003,1766
33126,1646,-3040,421,65,-953,1711
33136,1585,-3350,81,-190,-985,1633
33146,1352,-3767,-177,-217,-1121,1568
33156,1177,-4178,-471,-64,-1287,1554
33166,1103,-4405,-671,128,-1322,1575
33176,818,-4348,-579,50,-1360,1606
33186,942,-4301,-508,-397,-1296,1568
33196,1107,-5081,-414,-613,-1240,1636
33206,959,-6132,-564,-627,-1159,1808
33216,1182,-6245,-779,-795,-1025,1882
33226,1229,-6215,-854,-1138,-999,1915
33236,1275,-6853,-1071,-1432,-891,1980
33246,1331,-7524,-1211,-1602,-725,2025
33256,1304,-7938,-1295,-1705,-554,2073
33266,1039,-8266,-1382,-1907,-431,2106
33276,869,-8919,-1582,-2146,-360,2129
33286,671,-9992,-1673,-2298,-277,2199
33296,520,-10736,-1754,-2481,-180,2326
33307,736,-11422,-1880,-2618,-125,2548
33317,1139,-12277,-1824,-2638,-77,2902
33327,1921,-13135,-1866,-2642,32,3323
33337,2363,-13619,-1671,-2808,-5,3699
33347,2982,-13758,-1611,-2877,-5,4172
33357,3416,-13146,-1374,-2955,-103,4687
33367,3209,-12660,-646,-3147,-394,5218
33377,3730,-12048,-188,-3227,-777,5635
33387,4254,-11191,418,-3133,-1208,6001
33397,4807,-11235,1079,-2617,-1527,6227
33407,5386,-10384,1766,-1934,-1677,6406
33417,6035,-9550,2346,-1288,-1885,6455
33427,6051,-8536,3003,-864,-2229,6592
33437,6276,-7799,3721,-420,-2642,6657
33447,6937,-7535,4311,153,-3116,6601
33457,8134,-6713,4691,987,-3414,6541
33467,9116,-4731,5336,1963,-3562,6520
33477,10047,-2298,5773,2648,-3559,6579
33487,11699,-248,4989,3177,-3397,6514
33497,13756,1730,4688,3291,-3187,6388
33508,15697,4140,5420,3128,-3378,5829
33518,16986,6039,5882,3360,-3699,5137
33528,17274,6589,6321,3909,-4059,4390
33538,17814,6691,6038,4376,-4266,3001
33548,19504,7265,5579,4957,-4150,1242
33558,20542,8926,5207,5841,-4037,-650
33568,21011,9791,5041,6994,-4170,-2176
33578,20809,10886,3838,8928,-3985,-3714
33588,21136,13295,4119,10742,-4321,-5971
33598,23843,15413,5020,11159,-6005,-9116
33608,32758,12114,5899,9675,-7810,-12215
33618,-32768,1811,8166,7420,-10374,-14178
33628,-32768,-8595,10625,4106,-13459,-16676
33638,-32768,-18600,14417,-1764,-14764,-20772
33648,-32768,-21467,18560,-8029,-12934,-26667
33658,-32768,-24768,16713,-13735,-8946,-30741
33668,-32768,-23219,12839,-20867,-3755,-32768
33678,-32768,4190,2378,-29291,1910,-32768
33688,-32768,28292,-10638,-32767,6546,-32768
33698,-32768,32767,-10787,-32767,10779,-26821
33709,-32768,18368,-31544,-9325,-4999,-569
33719,-32768,-2493,-32768,-23772,17329,-1686
33729,-11052,-31981,13828,-1589,15562,-6622
33739,26825,27210,21568,-4464,15892,-14669
33749,-32768,26880,14263,-17351,11056,-8288
33759,31482,10310,-179,-16478,8396,-5887
33769,-32768,11646,-7034,-12429,8612,-4734
33779,-32768,12179,-6855,-9155,7176,-1904
33789,30471,18744,-8924,-8466,5941,-1022
33799,26586,18141,-13847,-8234,4712,553
33809,20499,13876,-16568,-6920,4170,1336
33819,17521,9297,-17655,-4569,3809,1844
33829,15596,5933,-18953,-1302,3622,2285
33839,11687,5987,-18794,1510,3519,2454
33849,9424,5117,-18090,3415,3296,2530
33859,8891,3171,-17044,4606,2944,2719
33869,7554,1122,-14786,5112,2525,2837
33879,6642,290,-12616,4781,2029,2866
33889,6029,-538,-10596,4024,1656,2925
33899,4644,-1392,-8676,3053,1221,3050
33910,2736,-1463,-7567,1984,767,3191
33920,1001,-1330,-6775,988,349,3325
33930,-459,-914,-6366,2,6,3399
33940,-1570,-807,-6261,-614,-242,3426
33950,-2756,-1222,-6793,-745,-76,3132
33960,-2861,-2090,-6846,-348,165,2864
33970,-1582,-3538,-5952,328,945,2700
33980,-3033,-3555,-6242,1739,2240,2047
33990,-3895,-3712,-6045,3702,2320,2012
34000,-4486,-3430,-5247,4486,2169,2123
34010,-4542,-2396,-4311,5122,1695,2032
34020,-4038,-1059,-2731,5342,1282,1960
34030,-3676,197,-1360,4569,1054,1813
34040,-3484,1042,-285,3465,1057,1487
34050,-3514,1217,366,2224,1226,1184
34060,-3854,804,727,790,1180,906
34070,-4152,142,417,-431,1028,698
34080,-4227,-289,-177,-1302,777,516
34090,-4244,-466,-337,-1615,453,520
34100,-4104,-625,-522,-1826,218,418
34111,-3948,-541,-628,-2065,155,210
34121,-4012,-323,-244,-2009,113,97
34131,-4066,-179,107,-1617,146,24
34141,-4191,-66,433,-1334,68,-18
34151,-4315,9,809,-1053,41,-209
34161,-4131,-11,968,-822,-150,-376
34171,-3904,-3,1383,-697,-370,-500
34181,-3606,71,1743,-664,-567,-677
34191,-3289,-1,1937,-528,-728,-907
34201,-2877,-271,2084,-348,-841,-1105
34211,-2582,-459,2274,-402,-965,-1208
34221,-2317,-602,2260,-653,-1029,-1353
34231,-2067,-987,2453,-785,-1000,-1558
34241,-1856,-1542,2759,-692,-863,-1726
34251,-1596,-1864,2802,-498,-705,-1779
34261,-1358,-1579,2525,-439,-584,-1756
34271,-1299,-1225,2629,-163,-527,-1835
34281,-1173,-1378,3078,58,-471,-2059
34291,-1095,-1611,2629,280,-363,-2262
34301,-1056,-1456,2253,631,-311,-2402
34311,-1005,-1103,2153,720,-376,-2482
34321,-931,-883,1834,562,-494,-2571
34332,-767,-924,1581,285,-669,-2727
34342,-578,-1200,1551,73,-817,-2923
34352,-361,-1708,1824,-182,-824,-3117
34362,-82,-2292,1626,-726,-773,-3232
34372,168,-3045,962,-1255,-822,-3248
