t_ms,ax,ay,az,gx,gy,gz
0,255,561,4224,-758,299,408
10,293,527,4282,-709,284,367
20,359,622,4358,-729,281,325
30,265,638,4329,-800,325,374
40,-33,449,4329,-813,274,454
50,93,100,4231,-587,171,553
61,86,-86,4232,-262,125,616
71,470,-383,4413,29,161,418
81,-2080,996,4609,-333,-10,1597
91,970,-306,4459,-351,-283,1334
101,857,-453,4410,-29,-8,471
111,43,246,4410,176,81,62
121,11,456,4526,104,-77,148
131,232,507,4517,-56,-61,231
141,113,517,4384,-58,-27,161
151,180,550,4433,15,29,156
161,250,574,4517,90,46,198
171,226,594,4509,96,87,205
181,370,869,4429,97,77,194
191,33,-239,4121,114,177,-84
201,-168,779,4118,484,-287,115
211,17,855,4276,447,-614,508
221,94,696,4178,276,-521,600
232,90,560,4120,237,-586,726
242,291,490,4018,209,-600,782
252,355,459,4053,238,-548,657
262,463,750,4048,244,-507,715
272,159,762,4109,213,-536,838
282,338,536,4129,129,-461,843
292,445,284,4082,134,-436,951
302,754,411,3945,193,-360,840
312,980,763,3964,141,-197,579
322,529,992,4039,25,-110,654
332,787,613,4020,0,-115,811
342,829,578,4023,-30,-83,737
352,925,563,4028,-29,-47,589
362,1024,706,4135,-120,52,427
372,973,781,4239,-213,72,380
382,801,511,4169,-288,149,281
392,680,470,4143,-290,177,157
403,676,426,3977,-305,270,-114
413,477,471,3884,-349,387,-526
423,319,535,3762,-391,503,-905
433,61,599,3718,-429,579,-1273
443,333,639,3782,-506,634,-1518
453,5,557,3854,-541,698,-1599
463,-103,512,4013,-559,606,-1449
473,-246,404,4066,-660,434,-1071
483,-109,-1189,4246,-736,413,-1366
493,231,407,3915,-1492,1298,-3276
503,-532,698,3672,-1405,879,-1733
513,-305,22,2527,-600,-180,-102
523,1536,240,4317,-35,-415,563
533,641,319,3959,-395,167,79
543,-281,-14,3936,-252,286,-172
553,-287,4,4034,-245,66,-19
564,-51,-182,4181,-217,-52,-57
574,103,-99,4199,-188,-40,-218
584,-64,56,4171,-201,-20,-374
594,-202,128,4212,-244,-114,-423
604,-57,160,4195,-269,-185,-406
614,35,104,4192,-275,-191,-398
624,247,-52,4255,-216,-187,-418
634,116,-220,4298,-263,-153,-362
644,196,-494,4283,-314,-126,-400
654,333,30,4172,-165,-110,-322
664,152,26,4377,-143,-163,-196
674,656,-278,4398,-284,-178,-194
684,1348,-333,4035,-286,-5,407
694,197,-316,4194,-14,249,115
704,-344,-38,4259,10,249,-91
714,-563,276,4315,-6,111,-126
724,-20,157,4381,-100,-43,-64
735,319,57,4245,-126,-89,22
745,537,-120,4180,-66,-12,39
755,-217,-225,4100,-85,-65,134
765,-211,-343,2635,9,-21,134
775,-237,68,6376,137,226,246
785,783,372,7110,312,483,38
795,341,122,3869,153,177,-139
805,158,-24,4274,88,55,-132
815,275,-149,4090,112,78,-126
825,164,-225,4103,197,108,-44
835,-44,208,4218,228,177,-128
845,-85,4,4153,181,142,-12
855,41,-48,4077,235,43,94
865,144,163,4107,233,84,-43
875,257,75,4044,191,124,46
885,83,95,3974,150,123,51
895,140,158,3880,131,136,77
906,134,203,3945,106,127,151
916,38,277,3917,67,148,103
926,-90,194,3912,68,133,67
936,-77,227,3919,73,41,-23
946,33,87,4017,66,3,25
956,80,-49,3997,88,2,23
966,141,-82,4023,124,23,3
976,107,-9,3908,166,48,5
986,50,107,4021,173,58,29
996,-47,215,4030,152,46,46
1006,-58,202,3974,136,41,30
1016,42,419,4023,118,11,-62
1026,270,341,4105,-25,99,-73
1036,310,126,3943,-75,113,149
1046,90,134,3839,18,159,168
1056,-315,293,3911,96,128,24
1067,-489,405,3911,45,-3,-36
1077,-236,414,3898,-26,-118,-93
1087,179,214,3818,-90,-139,-115
1097,650,-94,3728,-60,43,-118
1107,55,-75,3935,88,61,77
1117,-133,147,3964,66,35,13
1127,61,-171,3979,33,-65,176
1137,-133,447,3937,105,-2,18
1147,393,302,3886,103,-115,-5
1157,586,26,4047,139,-82,216
1167,280,93,4184,108,172,183
1177,-1,67,4092,60,224,78
1187,-53,184,4131,125,248,14
1197,29,212,4218,143,286,-18
1207,17,306,4142,154,247,19
1218,-20,341,4157,186,183,24
1228,-68,464,4175,160,157,6
1238,-65,401,4185,54,184,30
1248,-132,180,4107,-3,186,47
1258,-120,121,4070,59,101,40
1268,-21,117,4084,106,91,12
1278,7,208,4094,147,130,-18
1288,49,210,4061,148,211,-38
1298,-48,256,4038,161,273,-93
1308,-41,238,3995,155,244,-73
1318,-24,314,4021,140,198,51
1328,75,330,4009,102,223,93
1338,-39,400,4014,109,272,108
1348,-180,487,4030,129,276,92
1359,-152,409,4115,125,227,95
1369,-165,474,4011,100,194,147
1379,-222,553,4095,98,186,140
1389,-251,606,4060,79,175,130
1399,-243,637,3985,42,189,77
1409,-125,456,4072,47,221,-55
1419,-4,403,3980,18,261,-73
1429,-12,283,4103,-14,285,-110
1439,-22,261,4077,12,308,-137
1449,-159,330,4016,25,324,-135
1459,-317,399,4132,37,277,-5
1469,45,52,4054,8,242,184
1479,-76,276,3895,62,475,210
1489,-341,398,4000,161,365,212
1500,-158,184,4061,67,199,328
1510,-152,115,3991,57,97,466
1520,-123,265,4037,44,46,512
1530,-418,496,4114,-5,217,440
1540,-444,735,4244,-70,404,214
1550,-504,325,4315,-150,361,50
1560,-579,486,4161,-118,494,17
1570,-569,501,4128,-67,367,95
1580,-533,655,4289,-26,424,187
1590,-714,591,4287,-53,523,199
1600,-678,310,4237,-40,435,249
1610,-761,255,4208,16,199,230
1620,-696,507,4290,37,106,228
1630,-643,658,4343,-14,177,183
1640,-796,498,4279,-87,219,56
1651,-788,407,4283,-106,188,-35
1661,-776,333,4388,-145,169,-71
1671,-779,249,4318,-190,145,-127
1681,-642,355,4260,-218,57,-90
1691,-692,453,4208,-248,-11,-92
1701,-676,496,4082,-293,-171,-112
1711,105,-155,4225,-336,-299,-119
1721,-614,356,4114,-358,-358,-184
1731,-308,199,3987,-356,-422,-182
1741,-277,110,3912,-247,-363,-101
1751,-121,79,4002,-157,-289,-123
1761,-166,89,4001,-193,-274,-113
1771,-232,96,3937,-272,-293,-152
1781,-205,109,3912,-277,-259,-196
1792,-351,94,3982,-279,-263,-205
1802,-703,146,4687,-233,-241,-183
1812,-1972,46,2693,-298,-430,-310
1822,-1078,343,6622,-117,-110,-125
1832,-87,464,7030,-57,-19,-83
1842,-245,137,3708,-154,-243,-156
1852,-184,72,4256,-48,-159,-76
1862,-213,68,4246,-55,-217,-21
1872,-281,-7,4255,-50,-194,-1
1882,-207,9,4210,-52,-169,-26
1892,-312,-75,4156,-51,-199,-34
1902,-264,-103,4182,-7,-272,19
1912,-149,-17,4183,2,-246,23
1922,-294,18,4144,-13,-150,-58
1933,-273,20,4157,17,-138,-107
1943,-93,21,4137,52,-116,-56
1953,-183,4,4112,92,-22,-78
1963,-135,83,4141,128,3,-92
1973,-167,159,4232,118,1,-68
1983,-179,212,4184,61,1,-87
1993,-182,244,4045,48,-5,-77
2003,-294,228,3987,74,3,-78
2013,-329,159,3993,108,-29,-79
2023,-197,147,4041,137,-12,-40
2033,-287,131,4061,147,7,-62
2043,-180,135,4124,215,-52,-87
2053,-127,227,4199,214,-33,-52
2063,-182,331,4154,183,-11,-69
2074,-139,345,4130,156,-24,-67
2084,-189,257,4091,137,10,-86
2094,-238,243,4144,148,-34,-88
2104,-163,286,4174,163,-88,-76
2114,-188,278,4126,167,-97,-105
2124,-107,284,4202,200,-131,-100
2134,-82,290,4221,182,-130,-65
2144,-55,364,4287,156,-101,-70
2154,-39,452,4276,97,-43,-41
2164,-71,486,4212,41,-35,-28
2174,-79,478,4130,-14,-60,11
2184,-108,408,4121,-51,-50,54
2194,-184,321,4083,-49,-41,21
2204,-136,293,4226,-46,-63,30
2214,-122,345,4262,-67,-42,41
2224,-135,300,4192,-46,-35,-9
2234,-108,110,4200,-18,-36,15
2244,-178,149,4231,47,-65,-30
2254,-118,361,4341,78,-83,-34
2264,-184,482,4338,17,-14,-21
2274,-197,510,4288,-25,30,-45
2284,-149,450,4281,-75,23,-1
2294,-239,276,4205,-114,57,-4
2304,-173,227,4183,-84,34,-26
2314,-171,208,4112,-92,47,-27
2324,-276,182,4139,-89,27,-54
2334,-151,167,4138,-56,-21,-7
2344,-145,119,4153,-28,39,9
2354,-263,125,4042,16,78,-16
2364,-128,171,4117,72,7,76
2374,-157,207,4141,63,60,177
2384,-170,280,4060,108,163,181
2394,-270,295,4117,132,201,159
2404,-279,149,3970,-69,-203,127
2414,-355,387,4122,38,-192,31
2424,-266,708,4155,-33,-32,-246
2434,-349,536,4077,-258,-143,-234
2444,-260,231,3975,-265,-123,-240
2454,-21,207,3904,-260,-200,-104
2464,141,229,3960,-191,-148,57
2474,102,187,3929,-110,-35,143
2484,74,145,4011,-27,58,243
2494,-86,391,3915,47,128,256
2504,-520,526,3976,26,217,184
2514,-1113,901,4103,54,-131,-198
2524,-2333,632,3895,-381,-553,-592
2534,-3260,742,3689,-304,-1582,-1490
2544,-217,294,4200,-569,-2359,-1477
2554,2196,83,4203,-809,-2039,-689
2564,3007,-211,4106,-665,-1002,-271
2575,2360,-615,4178,-493,-157,37
2585,981,-679,4019,-308,247,279
2595,-221,139,4263,-100,306,236
2605,1292,1246,4137,83,233,422
2615,486,-118,4420,14,396,1062
2625,-170,-358,3994,-84,548,841
2635,-223,-330,4086,-57,524,612
2645,-250,-101,4062,-111,415,540
2655,-377,34,3947,-42,247,620
2665,-411,72,3957,89,44,569
2675,-415,177,4058,100,-111,352
2685,-205,405,4077,30,-14,-103
2695,151,499,3982,26,-46,-101
2705,80,476,3984,47,-92,26
2715,-146,270,4046,48,-143,-30
2725,-115,416,3879,105,-181,-166
2735,147,6,3906,103,-220,-183
2745,271,-21,3848,48,-247,-65
2755,162,135,3869,96,-244,21
2765,96,225,3926,146,-269,142
2775,181,163,3958,139,-318,285
2785,268,27,4026,78,-312,380
2795,158,-85,4048,-1,-251,371
2805,130,-151,3918,8,-262,412
2815,122,-127,3913,121,-271,409
2825,255,30,4020,187,-254,326
2835,273,331,4139,187,-203,209
2845,349,489,4275,82,-170,108
2855,434,363,4184,-42,-135,50
2865,222,140,4158,-38,-157,-12
2875,245,2,4212,-38,-158,9
2885,278,64,4237,-54,-129,89
2895,283,191,4246,-96,-91,96
2905,251,146,4256,-167,-65,72
2915,268,171,4233,-202,-46,103
2925,340,262,4165,-169,-23,161
2935,294,324,4137,-158,-45,291
2945,75,110,4104,-198,-75,286
2955,47,-234,4051,-210,-122,156
2965,230,-398,4114,-195,-79,-15
2975,317,-220,4118,-206,54,-350
2985,906,-606,4079,-185,369,-1179
2995,-34,-49,4000,-77,664,-1429
3005,-740,758,3951,-114,303,-935
3015,-282,807,3990,-147,-94,-573
3025,187,298,4028,-255,-194,-462
3035,407,-7,3897,-259,-167,-459
3045,323,-48,3845,-97,-127,-344
3055,145,104,3982,93,-93,-68
3065,263,505,4402,22,-22,160
3076,701,730,4470,-205,78,380
3086,1438,329,4511,-411,136,-161
3096,585,44,4140,-458,625,-452
3106,-614,-134,3881,-356,668,-118
3116,-582,-224,3659,-206,167,237
3126,246,-290,3932,38,13,222
3136,613,-355,4012,117,163,-236
3146,422,-184,4080,144,421,-541
3156,-202,205,4003,180,368,-263
3166,-43,310,4063,217,98,80
3176,472,-176,4141,215,23,214
3186,-252,423,4079,310,314,-207
3196,1050,-1414,4473,125,152,-98
3206,-345,-273,3581,-125,-89,-127
3216,-145,892,4278,666,394,-510
3226,91,-112,4464,-86,71,-320
3236,-34,-142,3956,-44,186,-345
3246,352,-141,4137,228,356,-489
3256,366,-271,4150,302,649,-782
3266,-43,-59,4081,358,673,-917
3276,-227,-11,4086,314,316,-640
3286,-236,672,3860,257,34,-612
3296,-163,957,4061,331,-16,-977
3306,-193,841,4055,98,128,-954
3316,-323,718,4029,174,102,-865
3327,-152,-405,4243,193,206,-563
3337,-177,-221,3866,144,-550,-306
3347,496,-282,4090,353,-322,-347
3357,-1,167,4274,464,174,-512
3367,-290,267,4315,335,240,-508
3377,-202,159,4328,241,120,-354
3387,-162,137,4425,158,139,-363
3397,-273,-45,4391,13,142,-417
3407,-228,-26,4274,-51,109,-362
3417,-165,133,4264,-97,62,-258
3427,-214,171,4168,-83,49,-26
3437,-109,68,4057,-4,112,341
3447,-10,-235,3896,220,150,826
3457,-229,-13,4138,409,325,1399
3467,-123,488,4253,225,169,1495
3477,-109,429,4230,66,173,1572
3487,-118,430,4165,-34,83,1455
3497,-166,466,4176,-180,-109,1179
3507,4,460,4065,-405,-445,886
3517,84,519,4160,-371,-276,561
3527,5,437,4136,-578,-391,327
3537,-153,564,4336,-468,-254,295
3547,-657,273,5164,-372,-302,269
3557,690,-29,2157,-381,-219,-16
3567,-1737,-368,1861,-350,-389,-43
3578,-1823,-339,3884,-180,-351,134
3588,-637,239,4051,-17,-350,380
3598,215,160,4260,22,-282,296
3608,122,75,4110,-10,-81,-25
3618,-77,80,4014,6,-9,-146
3628,-158,174,4092,-20,-60,-37
3638,-41,224,4002,-97,-75,13
3648,7,146,3932,-109,-40,3
3658,1,42,3969,-114,-38,-19
3668,9,83,3965,-71,-39,-3
3678,-50,177,4025,23,-57,16
3688,-18,210,4063,40,-93,-14
3698,38,257,4060,28,-123,-31
3708,14,257,4020,9,-105,-65
3718,17,245,3917,14,-130,-86
3728,68,214,3969,52,-192,-73
3738,145,119,4019,46,-215,-11
3748,219,128,3968,122,-191,3
3758,114,168,4053,195,-174,-34
3768,2,136,4079,173,-177,-63
3778,-4,156,4163,145,-215,-31
3788,95,102,4267,31,-235,-35
3798,241,26,4134,-34,-214,-13
3808,272,25,4156,6,-174,-63
3818,322,64,4203,22,-129,-80
3829,326,222,4193,46,-70,-77
3839,307,286,4226,14,-21,-44
3849,255,331,4147,-9,-11,-48
3859,229,155,4138,-15,-2,-12
3869,96,-77,4098,-7,-8,13
3879,190,-5,4055,69,-10,31
3889,176,130,4153,122,0,-13
3899,211,248,4205,125,-4,-52
3909,326,439,4221,188,0,1
3919,272,390,4229,139,48,11
3929,280,14,4089,50,116,-20
3939,255,98,4056,148,202,-45
3949,-99,660,4078,247,131,60
3959,8,592,4083,165,4,158
3969,100,231,3976,108,-6,176
3979,43,154,3968,148,-25,137
3989,17,105,4033,163,-45,126
3999,65,77,3896,215,-70,129
4009,222,173,3955,352,-115,172
4019,217,368,4047,433,-119,225
4029,146,530,4174,408,-93,209
4039,109,710,4146,251,-47,172
4049,49,655,4189,125,-38,74
4059,31,528,4106,26,-46,39
4069,43,439,4110,9,-52,52
4080,50,259,3938,49,-71,40
4090,106,119,3979,166,-124,48
4100,85,179,4078,252,-120,72
4110,111,309,4084,257,-124,112
4120,62,467,4092,224,-126,118
4130,48,505,4185,177,-144,100
4140,149,508,4215,123,-149,107
4150,181,524,4223,83,-83,84
4160,89,465,4233,44,-39,39
4170,160,546,4250,2,-35,66
4180,151,511,4133,-17,-16,97
4190,223,331,4047,-11,0,131
4200,207,212,4110,-15,15,113
4210,165,239,4153,-44,44,40
4220,159,385,4105,-41,86,-1
4231,86,432,4107,-59,96,-8
4241,92,446,4105,-43,70,6
4251,117,538,4204,-32,66,38
4261,99,600,4201,-89,65,51
4271,123,538,4137,-147,80,59
4281,89,422,4082,-204,83,44
4291,96,395,3949,-254,74,65
4301,132,331,3885,-171,35,44
4311,106,259,3960,-135,22,6
4321,168,316,3990,-127,21,-17
4331,193,486,4060,-143,30,18
4341,118,485,3999,-105,-7,-13
4351,216,391,3928,-42,-46,6
4361,140,380,3954,81,-75,6
4372,170,380,4000,75,-76,28
4382,231,413,3997,34,-46,74
4392,180,369,3966,-3,-32,69
4402,289,301,3897,-54,-24,54
4412,222,298,3895,-72,1,43
4422,261,265,3912,-78,7,29
4432,313,292,3780,-69,42,15
4442,197,315,3892,-43,79,-11
4452,207,365,3861,-9,66,26
4462,229,404,3891,56,40,71
4472,161,412,4005,81,38,51
4482,196,502,4076,36,29,70
4492,127,558,4065,-13,37,105
4502,190,409,3995,-70,23,123
4513,140,373,3917,-58,-2,134
4523,52,301,3947,-39,-35,102
4533,115,293,3899,-39,-30,88
4543,142,307,3962,-39,-16,113
4553,166,273,4023,-78,-5,78
4563,215,282,4091,-99,-16,68
4573,181,371,4155,-123,6,35
4583,219,510,4168,-160,23,16
4593,171,573,4177,-206,30,45
4603,96,541,4246,-280,5,52
4613,84,463,4247,-335,-14,55
4623,48,360,4302,-375,-34,11
4633,114,280,4333,-408,-43,-36
4643,221,276,4400,-430,-26,-45
4653,260,193,4367,-487,20,-41
4664,300,145,4186,-424,19,15
4674,204,44,4194,-312,1,36
4684,189,146,4309,-265,-5,54
4694,276,245,4370,-264,43,57
4704,227,263,4333,-278,76,56
4714,169,228,4307,-320,121,46
4724,166,207,4344,-305,102,29
4734,174,203,4400,-297,116,-30
4744,167,257,4298,-333,142,-75
4754,82,260,4297,-373,117,-113
4764,78,294,4206,-422,113,-168
4774,-667,306,3877,-416,43,-301
4784,-1132,146,3712,-245,-422,-859
4794,384,-38,3971,-227,-629,-825
4805,1034,-139,3998,-55,-558,-555
4815,1118,-179,4242,16,-337,-201
4825,816,-142,4195,38,-96,-7
4835,384,-124,4173,71,27,9
4845,305,-21,4089,163,88,-114
4855,10,521,4069,39,109,1
4865,-69,554,3989,-118,54,-36
4875,136,219,3862,-249,-16,20
4885,236,-173,3768,-267,9,0
4895,240,-300,3725,-166,100,-22
4905,289,-69,3696,-23,147,98
4915,55,36,3830,20,79,254
4925,-180,-199,3765,26,-36,306
4935,-275,-345,3690,137,-182,442
4946,-83,29,3637,418,-349,791
4956,580,189,3888,691,-436,1206
4966,386,321,3986,884,-446,1357
4976,737,-306,4050,901,-431,1285
4986,461,-144,3813,965,-373,1166
4996,271,-543,3935,1082,-390,863
5006,609,-345,3960,1175,-363,506
5016,277,540,4293,1084,-215,177
5026,575,884,4380,765,-152,53
5036,585,874,4496,424,-15,-5
5046,559,839,4580,146,97,22
5056,526,776,4568,-137,241,107
5066,359,611,4507,-369,330,228
5076,350,529,4533,-578,385,323
5087,224,359,4461,-754,501,384
5097,-98,-148,4238,-823,492,281
5107,-157,-516,4041,-680,391,18
5117,43,-344,4127,-476,323,-408
5127,52,-182,4010,-358,118,-602
5137,54,337,4096,-193,-10,-744
5147,179,381,4283,-168,-24,-730
5157,175,173,4301,-135,-39,-700
5167,204,275,4379,-10,37,-619
5177,105,403,4505,7,73,-525
5187,130,458,4515,-68,115,-460
5197,266,456,4400,-77,145,-359
5207,154,391,4218,-40,93,-247
5217,116,285,4092,34,53,-112
5227,97,322,4104,61,34,-45
5237,298,398,4104,42,24,-21
5247,242,390,4042,12,26,-7
5257,151,168,3921,36,-37,-43
5267,242,100,3960,56,-51,-15
5277,331,260,4002,50,-15,-33
5287,288,225,4046,11,9,-64
5297,287,190,3991,3,18,-54
5307,123,109,4039,42,-29,-60
5317,183,65,4026,103,-76,-37
5327,276,99,4039,141,-74,25
5338,258,161,4026,139,-53,15
5348,349,270,4075,63,-19,42
5358,346,326,4124,-47,33,86
5368,275,254,4093,-163,78,90
5378,117,91,3904,-118,34,45
5388,115,112,4125,-49,-4,-2
5398,194,196,4130,-27,4,2
5408,116,220,4197,2,16,30
5418,73,81,4121,80,-49,22
5428,153,-1,4242,202,-92,-15
5438,218,94,4311,254,-40,-5
5448,243,174,4216,241,15,0
5458,142,102,4171,235,40,17
5468,111,-1,4181,272,-9,63
5478,139,-25,4078,404,-37,71
5488,89,76,4123,475,-31,60
5498,265,231,4214,473,-31,24
5508,236,387,4209,432,38,-39
5518,241,387,4212,374,66,-14
5528,239,419,4101,393,80,-4
5538,183,445,4164,391,102,-9
5548,173,554,4150,321,98,-29
5558,171,568,4068,326,89,-26
5568,1,434,4085,368,55,-14
5578,58,469,4087,388,10,11
5589,61,499,4084,432,-18,6
5599,17,477,4082,441,-60,-22
5609,64,439,3967,456,-79,-46
5619,21,467,4018,448,-79,-45
5629,92,507,3978,385,-70,-52
5639,164,587,4027,335,-34,-35
5649,71,684,4017,238,17,-37
5659,155,706,3993,153,42,3
5669,118,831,3988,107,95,63
5679,1,685,3903,118,63,39
5689,-48,620,3822,170,41,35
5699,-116,658,3908,214,-16,5
5709,-43,671,4067,175,-34,-7
5719,-63,754,4135,118,-34,-10
5729,-68,742,4150,39,-47,-13
5739,0,667,4114,-22,-60,6
5749,35,643,4115,-77,-40,44
5759,62,523,4058,-96,-33,40
5769,69,492,4002,-84,-39,26
5779,88,438,4127,-83,-50,14
5789,151,482,4078,-55,-37,-2
5799,98,558,4134,-53,-30,0
5809,98,562,4181,-79,-41,-9
5819,97,557,4186,-90,-34,-14
5829,82,549,4267,-88,-42,6
5840,54,508,4260,-89,-59,-20
5850,36,403,4315,-47,-76,-41
5860,162,514,4471,-51,-85,-47
5870,170,606,4416,-50,-43,-28
5880,131,523,4417,-58,-33,15
5890,154,453,4347,-41,-17,35
5900,180,452,4327,6,-3,25
5910,149,512,4309,16,19,10
5920,86,586,4199,-7,33,-19
5930,113,576,4193,17,35,-32
5940,66,708,4234,-13,32,-53
5950,95,749,4235,-32,45,-36
5960,76,748,4279,-66,58,-17
5970,52,735,4222,-97,49,-11
5980,87,697,4181,-91,30,-5
5990,80,743,4185,-119,14,-14
6000,86,684,4027,-183,31,-28
6010,88,649,3981,-255,47,-42
6020,76,659,3943,-319,52,-76
6030,138,647,3958,-348,54,-87
6040,55,678,4004,-426,74,-86
6050,69,736,4079,-542,99,-92
6060,75,752,4101,-647,124,-93
6070,14,770,4138,-762,133,-93
6080,-3,781,3996,-845,134,-93
6091,-97,705,4015,-896,53,-84
6101,-63,323,3992,-891,-7,-154
6111,-91,132,3862,-755,-38,-194
6121,-101,98,3871,-591,-132,-275
6131,-44,159,3929,-440,-209,-360
6141,204,200,4038,-408,-281,-475
6151,845,174,4231,-638,67,-876
6161,88,296,4002,-553,192,-1018
6171,-354,278,4173,-628,151,-733
6181,-132,163,4092,-778,-75,-586
6191,125,32,4038,-716,-97,-511
6201,214,-184,4019,-658,-78,-516
6211,146,-159,3987,-548,-59,-461
6221,307,47,3962,-506,-104,-472
6231,266,208,3975,-401,-26,-275
6241,341,363,3938,-466,54,-202
6251,638,2,3907,-370,26,249
6261,-31,56,3795,-451,166,-71
6271,-94,14,3846,-410,135,-317
6281,-173,-34,4067,-455,29,-216
6291,231,276,4219,-576,-157,-303
6301,672,995,4194,-700,-102,-542
6311,1103,522,4237,-836,-83,-298
6321,-251,-341,3913,-927,76,-62
6331,-220,-508,3806,-611,-107,-438
6342,-75,-232,3902,-352,-109,-421
6352,52,245,4063,-300,-164,-450
6362,156,273,4213,-339,-184,-476
6372,114,-57,4241,-419,-217,-461
6382,104,-329,4170,-420,-241,-462
6392,213,-348,4151,-388,-255,-525
6402,399,-62,3954,-384,-235,-587
6412,450,129,4061,-451,-193,-577
6422,363,276,4002,-683,-144,-533
6432,205,58,4132,-851,-167,-550
6442,335,-377,4311,-1054,-226,-561
6452,522,-681,4282,-1160,-261,-527
6462,616,-875,4285,-1100,-221,-507
6472,611,-965,4189,-1005,-150,-497
6482,544,-934,4035,-915,-103,-495
6492,450,-838,4094,-867,-54,-489
6502,310,-761,4025,-854,-23,-475
6512,272,-810,4081,-854,-30,-494
6522,366,-857,4105,-872,-47,-498
6532,452,-882,4149,-828,-31,-509
6542,457,-817,4098,-824,7,-520
6552,434,-731,3954,-789,36,-518
6562,378,-666,3840,-766,39,-517
6572,285,-527,3850,-747,49,-517
6582,187,-456,3702,-719,50,-525
6593,97,-494,3664,-692,15,-553
6603,139,-452,3759,-728,-29,-545
6613,159,-281,3688,-848,-63,-536
6623,192,-230,3615,-961,-81,-557
6633,215,-363,3271,-1145,-101,-587
6643,287,-587,3130,-1248,-123,-605
6653,345,-668,3098,-1340,-102,-585
6663,329,-625,3027,-1384,-48,-591
6673,274,-778,3069,-1400,-66,-654
6683,429,-1274,3362,-1408,-101,-707
6693,666,-1800,3713,-1430,-124,-722
6703,816,-2140,3859,-1329,-78,-740
6713,915,-2180,3862,-1169,-19,-743
6723,821,-1898,3847,-1035,38,-730
6733,660,-1721,3752,-835,89,-705
6743,486,-1756,3633,-780,96,-675
6753,436,-1837,3534,-738,57,-695
6763,564,-2023,3614,-717,65,-724
6773,745,-1931,3810,-822,100,-699
6783,794,-1947,3869,-897,165,-664
6793,766,-2529,3535,-847,189,-661
6803,709,-3373,3615,-604,246,-618
6813,627,-3549,3728,-371,281,-507
6823,596,-2905,4282,-368,356,-451
6833,558,-2191,4499,-858,360,-328
6844,580,-2803,4213,-989,300,-276
6854,514,-3941,4087,-876,249,-166
6864,509,-4255,3872,-566,260,-80
6874,535,-3565,3820,-194,290,-77
6884,693,-2627,4136,83,326,-107
6894,826,-2074,4128,220,333,-54
6904,906,-2233,3932,594,388,-69
6914,918,-2237,4111,992,584,-24
6924,870,-1696,4178,1202,628,-89
6934,1165,-1456,4225,1590,763,-329
6944,718,-952,4455,1900,931,-290
6954,248,-297,4193,1409,729,-203
6964,139,-160,4185,1244,492,-365
6974,682,-642,4086,1163,415,-579
6984,903,-929,4021,1134,378,-525
6994,907,-990,3836,1262,392,-576
7004,864,-798,3784,1412,443,-671
7014,666,-469,3710,1461,507,-709
7024,523,-349,3678,1463,505,-747
7034,567,-453,3703,1442,459,-824
7044,747,-609,3734,1405,469,-895
7054,786,-636,3811,1331,501,-899
7064,618,-584,3868,1268,483,-913
7074,469,-555,3790,1201,454,-966
7084,361,-577,3573,1181,404,-985
7095,353,-612,3562,1141,347,-993
7105,383,-600,3543,1016,328,-962
7115,400,-582,3699,860,316,-923
7125,389,-565,3687,641,331,-870
7135,297,-611,3639,477,326,-828
7145,165,-695,3514,275,313,-748
7155,17,-717,3557,-50,292,-612
7165,-198,-759,3671,-675,218,-483
7175,-155,-967,3483,-1295,143,-466
7185,28,-1676,3160,-1688,144,-341
7195,-3,-2727,3088,-1727,188,-141
7205,-157,-3382,3135,-1517,333,9
7215,-312,-3341,3316,-1236,420,56
7225,-345,-2810,3464,-1037,472,81
7235,-293,-2414,3564,-910,431,115
7245,-204,-2363,3511,-777,351,137
7255,-50,-2403,3635,-524,248,166
7265,100,-2377,3618,-48,197,142
7275,184,-2065,3778,455,184,161
7285,135,-1485,3885,813,152,192
7296,43,-860,3815,969,83,185
7306,-17,-578,3807,1009,6,242
7316,73,-677,3829,1053,-68,236
7326,238,-744,3863,1110,-141,210
7336,431,-665,3815,1115,-202,180
7346,498,-582,3790,1231,-177,204
7356,466,-550,3992,1252,-210,228
7366,402,-410,4090,1189,-230,237
7376,325,-390,4191,1175,-262,196
7386,262,-325,4339,1077,-317,200
7396,264,-225,4385,1037,-342,185
7406,328,-55,4337,967,-353,142
7416,362,164,4221,839,-276,136
7426,320,174,4315,756,-160,144
7436,302,209,4405,616,-135,144
7446,301,210,4250,475,-70,120
7456,363,140,4241,359,-21,62
7466,341,149,4121,158,19,42
7476,275,129,4130,19,46,31
7486,279,90,4100,-140,12,-22
7497,302,-1,3936,-257,23,-44
7507,316,-213,3967,-249,32,-95
7517,316,-246,3968,-326,36,-113
7527,239,-171,3866,-338,82,-121
7537,130,-179,3927,-325,95,-136
7547,90,-295,3966,-314,58,-141
7557,94,-479,4136,-256,29,-136
7567,109,-527,4173,-273,-4,-119
7577,90,-595,3972,-238,-8,-117
7587,114,-836,4024,-154,-28,-94
7597,168,-835,4007,-195,-49,-26
7607,165,-801,3981,-147,-37,-13
7617,247,-865,4112,-147,-17,17
7627,304,-845,4037,-171,-27,54
7637,355,-721,4095,-139,21,68
7647,272,-536,4254,-208,49,117
7657,217,-496,4275,-255,39,105
7667,289,-574,4378,-325,5,75
7677,382,-457,4327,-440,-16,51
7687,423,-334,4490,-563,-41,51
7698,464,-376,4595,-723,-90,55
7708,537,-465,4788,-957,-167,32
7718,586,-494,4919,-1179,-205,1
7728,623,-456,4922,-1450,-242,81
7738,574,-196,4991,-2015,-274,204
7748,494,-436,4356,-2545,-341,228
7758,554,-1454,4459,-2223,-176,191
7768,416,-2115,4719,-2078,-175,302
7778,584,-2059,4753,-1649,-98,150
7788,668,-1782,4804,-1686,-9,72
7798,644,-1577,4556,-1753,-40,135
7808,602,-1597,4373,-1986,6,237
7818,554,-1979,3723,-1902,39,203
7828,618,-2257,3694,-1983,22,286
7838,852,-2337,3201,-1941,78,412
7848,1247,-2900,3736,-1415,153,319
7858,1391,-2996,4267,-1174,240,416
7868,1231,-2541,4603,-1023,277,546
7878,1081,-2063,4813,-1086,245,441
7888,1017,-1820,4679,-1368,151,308
7899,1012,-1516,3998,-1713,95,380
7909,801,-1410,3435,-1819,123,560
7919,522,-1610,3356,-1925,137,748
7929,323,-1792,3571,-2262,150,820
7939,111,-1826,3910,-2571,355,838
7949,-307,-1360,3761,-2743,338,659
7959,-462,-875,3380,-3076,-36,252
7969,-372,-403,2692,-3523,-331,87
7979,-429,-307,2113,-3934,-366,29
7989,-1077,-274,1558,-3980,-354,-244
7999,-1438,-404,903,-3881,-588,-286
8009,-1525,-514,704,-3752,-1267,-221
8019,-1424,-818,703,-3715,-1410,-94
8029,-1357,-1316,442,-3750,-1437,-239
8039,-967,-1941,415,-3407,-1584,-557
8049,-67,-1926,541,-3094,-1528,-666
8059,86,-2058,348,-2769,-1351,-568
8069,58,-2380,603,-2402,-1203,-438
8079,-299,-2774,959,-2101,-1111,-376
8089,-457,-2920,1174,-1864,-1128,-472
8100,6,-2980,1326,-1719,-1148,-643
8110,575,-3242,1373,-1670,-1026,-817
8120,951,-3533,1369,-1568,-847,-891
8130,1285,-3947,1256,-1408,-682,-823
8140,1461,-4524,1422,-1188,-412,-644
8150,1209,-5115,1512,-864,-162,-587
8160,1164,-5650,1848,-464,-31,-498
8170,1202,-6186,1964,116,81,-335
8180,1128,-6847,2053,782,195,-252
8190,1337,-7422,1740,1701,246,-249
8200,-1012,-9831,1016,3164,597,-514
8210,2451,-7768,590,5227,-277,-1233
8220,604,-5462,1619,5758,611,-1146
8230,-429,-3145,2344,5554,312,-1101
8240,1382,-2090,2910,4957,53,-206
8250,2038,-2546,3127,3918,198,127
8260,2011,-3203,3120,3360,392,376
8270,1350,-3577,3101,3078,602,394
8280,1177,-3601,3083,2964,729,185
8290,1264,-3472,2988,3049,850,268
8300,1064,-3187,2993,3120,957,380
8310,984,-2985,2999,3383,1146,567
8320,765,-2921,3102,3688,1350,643
8330,566,-2386,3206,4010,1575,601
8340,298,-1415,3208,4274,1831,503
8351,-18,-704,3436,4448,2073,472
8361,-410,-286,3550,4470,2150,445
8371,-858,-198,3649,4428,2153,430
8381,-1262,24,3593,4379,2037,257
8391,-1361,168,3361,4534,1905,-24
8401,-1421,591,3474,4554,1850,-47
8411,-1478,1071,3473,4363,1730,141
8421,-1611,1141,3664,4009,1610,469
8431,-1833,795,4195,3510,1343,721
8441,-1913,234,4794,2824,983,807
8451,-1859,-389,4964,2327,661,801
8461,-1703,-1056,4757,2202,559,797
8471,-1531,-1371,4442,2207,579,835
8481,-1297,-1097,4261,2256,612,877
8491,-1097,-372,4015,2279,615,987
8501,-1180,400,3860,2164,558,1148
8511,-1437,957,3591,1971,460,1227
8521,-1602,1203,3198,1853,313,1184
8531,-1485,1202,2899,1747,157,1114
8541,-1355,1118,3038,1670,-140,1101
8551,-1009,765,3685,1631,-375,1069
8561,-419,657,3880,1307,-487,980
8571,145,677,3663,1185,-535,859
8581,422,753,3602,1136,-451,831
8591,281,906,3483,1051,-367,863
8602,-6,1025,3264,999,-335,823
8612,-139,1033,3146,1005,-350,720
8622,-62,1137,3257,919,-357,645
8632,53,1285,3454,884,-368,583
8642,227,1208,3815,838,-397,456
8652,414,1054,3992,687,-453,333
8662,637,1322,3706,505,-528,186
8672,1767,1475,4984,374,-136,212
8682,1615,1098,4814,241,131,513
8692,1342,912,4935,297,384,280
8702,1034,697,5043,350,561,369
8712,483,400,5222,279,619,610
8722,352,155,5047,258,674,411
8732,677,-156,4520,486,732,279
8742,410,-103,4057,956,706,357
8752,283,447,3842,1292,796,318
8762,77,1209,3915,1376,777,226
8772,-302,1769,4054,1034,599,153
8782,-516,1817,3867,551,403,-8
8792,-341,1751,3731,172,283,-179
8802,-193,1542,3694,78,235,-228
8812,-362,1545,3816,159,254,-270
8822,-469,1843,3968,193,195,-328
8832,-680,2260,4102,179,99,-272
8842,-833,2253,4199,60,-132,-213
8853,-591,1618,4384,-106,-301,-84
8863,-360,635,4380,49,-218,-39
8873,221,428,4010,355,59,21
8883,102,510,4169,626,249,72
8893,-653,949,3947,372,130,197
8903,-785,1380,3848,223,-128,7
8913,-168,1240,3533,-7,-66,40
8923,-340,765,3144,77,-51,127
8933,-420,755,3122,212,-34,89
8943,-543,1197,3148,381,-31,152
8953,-563,1309,3029,399,-68,153
8963,-630,1397,3190,246,-144,231
8973,-784,1670,3533,76,-321,290
8983,-678,1909,3824,-63,-498,151
8993,-380,1706,4196,24,-432,37
9003,-582,1410,4372,-34,-461,168
9013,-399,1830,4441,76,-390,67
9023,-211,2113,4562,196,-286,-75
9033,-439,2205,4562,148,-222,35
9043,-501,2198,4416,78,-219,2
9053,-366,2028,4120,49,-152,-66
9063,-55,1745,3667,53,-24,-70
9073,-29,1529,3412,98,31,24
9083,7,1413,3224,161,139,43
9093,-62,1119,3232,378,225,-47
9104,-270,1131,3081,561,319,-59
9114,-539,1422,3200,542,316,111
9124,-821,1825,3160,285,184,171
9134,-643,1811,3309,71,63,94
9144,-649,1573,3416,-117,-33,118
9154,-621,1432,3687,-146,-126,90
9164,-695,1547,3903,-143,-185,69
9174,-777,1654,3819,-30,-260,47
9184,-694,1715,3795,-42,-287,30
9194,-620,1862,3717,-118,-287,9
9204,-532,1957,3639,-133,-248,38
9214,-486,1931,3631,-162,-184,89
9224,-395,1900,3478,-137,-146,107
9234,-178,1965,3553,-76,-63,131
9244,-164,2158,3578,-63,29,161
9254,-276,2143,3642,0,78,140
9264,-357,1876,3540,-23,75,106
9275,-268,1533,3432,-65,62,80
9285,-152,1344,3407,-106,68,103
9295,-205,1126,3558,-130,85,126
9305,-305,995,3475,-138,48,121
9315,-270,797,3616,-64,32,169
9325,-232,684,3676,-4,68,102
9335,-287,908,3712,32,55,119
9345,-324,1110,3932,-14,28,152
9355,-215,1307,3994,-10,38,106
9365,-340,1451,4166,25,75,121
9375,-453,1680,4092,12,75,78
9385,-364,1865,4059,27,49,32
9395,-344,1905,3981,0,10,34
9405,-355,1898,3784,8,16,-9
9415,-338,1829,3666,54,1,-6
9425,-313,1750,3555,55,5,17
9435,-401,1778,3513,66,5,3
9446,-437,1712,3589,27,-47,41
9456,-384,1547,3603,9,-32,33
9466,-276,1496,3591,74,-40,36
9476,-271,1532,3758,151,14,102
9486,-457,1777,3689,173,9,92
9496,-480,1877,3652,179,-61,108
9506,-367,1650,3557,192,-82,114
9516,-357,1534,3534,243,-104,111
9526,-421,1485,3685,253,-99,149
9536,-389,1567,3650,211,-72,103
9546,-309,1726,3761,201,-109,90
9556,-316,1727,3875,157,-103,128
9566,-394,1732,3763,183,-141,68
9576,-312,1593,3803,195,-182,112
9586,-243,1438,3809,252,-134,92
9596,-374,1455,3870,323,-143,81
9607,-444,1527,3852,314,-183,110
9617,-270,1528,3730,312,-182,73
9627,-177,1565,3782,315,-199,121
9637,-306,1732,3801,298,-137,171
9647,-447,1917,3755,316,-138,173
9657,-379,2051,3628,302,-134,164
9667,-307,2076,3519,292,-82,167
9677,-437,2037,3436,271,-118,156
9687,-326,2064,3335,253,-127,111
9697,-271,2059,3262,209,-116,110
9707,-191,1967,3211,177,-109,104
9717,-146,1890,3266,156,-96,84
9727,-277,1799,3264,154,-123,75
9737,-102,1718,3240,165,-96,67
9747,-41,1731,3406,168,-43,81
9757,-181,1813,3462,107,-62,84
9767,-162,1925,3506,46,-50,58
9778,-173,1886,3510,18,-53,57
9788,-122,1847,3532,-12,-80,12
9798,-134,1900,3604,-39,-19,3
9808,-334,1910,3559,-61,-61,-17
9818,-179,1838,3556,-95,-76,-61
9828,-162,1781,3545,-101,-56,-53
9838,-192,1759,3575,-101,-71,-65
9848,-173,1783,3550,-92,-16,-49
9858,-253,1751,3510,-56,2,-44
9868,-247,1768,3475,-43,-19,-53
9878,-236,1858,3467,-8,33,-23
9888,-296,1957,3513,-38,4,-19
9898,-240,1975,3491,-62,21,-17
9908,-298,1900,3482,-43,27,-5
9918,-187,1946,3494,-65,24,-14
9928,-171,1947,3585,-56,78,4
9938,-219,1911,3440,-43,41,10
9949,-63,1809,3609,6,81,3
9959,-227,1854,3589,8,100,34
9969,-272,1883,3558,14,23,0
9979,-78,1815,3561,12,44,31
9989,-134,1784,3636,9,52,44
9999,-196,1831,3656,-18,13,31
10009,-244,1901,3682,-31,27,35
10019,-227,1959,3618,-26,-48,-1
10029,-77,1924,3705,-22,-6,-9
10039,-278,1982,3601,-26,-11,9
10049,-223,1926,3573,-15,-68,-38
10059,-123,1873,3583,-28,-24,6
10069,-276,1924,3587,-26,-14,4
10079,-266,1943,3560,-21,-14,-15
10089,-327,1894,3452,-10,2,16
10099,-180,1888,3501,23,-5,-4
10110,-183,2011,3631,-15,55,16
10120,-449,2079,3523,-42,20,24
10130,-304,1941,3485,-80,-41,-8
10140,-205,1854,3452,-89,-3,30
10150,-302,1895,3498,-54,-30,19
10160,-178,1998,3593,-46,32,34
10170,-296,2101,3572,-41,82,48
10180,-336,2043,3516,-46,3,16
10190,-140,2070,3479,-46,70,31
10200,-275,2182,3553,-45,75,25
10210,-271,2175,3405,-113,31,10
10220,-210,2057,3477,-137,76,7
10230,-269,1998,3497,-196,63,19
10240,-325,1915,3509,-252,77,4
10250,-253,1827,3487,-266,85,-24
10260,-217,1701,3626,-270,113,12
10270,-242,1734,3707,-234,170,-17
10280,-374,1721,3800,-234,175,17
10290,-334,1578,3933,-232,183,6
10300,-262,1540,3922,-218,185,-23
10311,-242,1434,4108,-175,236,15
10321,-298,1576,4116,-193,238,-36
10331,-277,1630,4120,-187,206,-37
10341,-313,1522,4215,-199,197,-45
10351,-158,1695,4066,-214,161,-138
10361,-242,1673,4082,-203,124,-95
10371,-124,1700,4059,-203,128,-144
10381,-164,1854,4022,-170,107,-134
10391,-314,1849,4051,-172,85,-108
10401,-153,1869,3966,-211,78,-155
10411,-87,1857,3936,-168,87,-132
10421,-223,1796,4048,-150,127,-116
10431,-294,1984,3976,-150,116,-142
10441,-360,1993,4065,-164,123,-125
10451,-389,2035,3946,-238,103,-151
10461,-373,1867,3937,-221,97,-121
10471,-457,1673,4106,-195,128,-87
10481,-518,1843,4021,-209,97,-113
10491,-607,1799,3893,-167,23,-67
10501,-473,1623,4001,-148,55,-81
10512,-493,1824,3872,-133,5,-63
10522,-586,1718,3904,-82,13,-9
10532,-416,1825,3932,-90,36,-54
10542,-568,2066,3934,-82,21,11
10552,-644,2118,3953,-113,28,-5
10562,-331,2255,3684,-182,-7,-50
10572,-419,2005,3709,-90,2,11
10582,-413,1976,3743,-82,33,-32
10592,-390,2060,3798,-68,15,12
10602,-476,1848,3884,-116,-27,21
10612,-331,1523,3772,-146,-69,43
10622,-257,1254,3908,-13,-37,117
10632,-421,1356,3983,34,-18,142
10642,-333,1662,3837,86,-62,157
10652,-382,1588,3993,113,-9,191
10662,-346,1873,3770,17,-45,99
10672,-279,1712,3729,52,-57,90
10682,-223,1405,3776,12,-21,33
10692,-325,1412,3702,-101,-24,66
10702,-469,1389,3980,-222,34,80
10713,-439,1127,3818,-379,-24,-30
10723,-288,1043,3486,-281,-55,-33
10733,-435,1080,3502,-81,-43,-22
10743,-303,1271,3415,5,-44,-63
10753,-453,1487,3516,-14,-10,-21
10763,-423,1524,3636,-98,23,-100
10773,-278,1467,3564,-145,51,-104
10783,-413,1308,3744,-94,122,-84
10793,-320,1436,3739,-105,146,-141
10803,-378,1710,3774,-104,153,-72
10813,-565,1672,4043,-133,185,-69
10823,-443,1767,3990,-220,157,-108
10833,-611,1672,3977,-231,113,-51
10843,-423,1423,4097,-277,115,-128
10853,-410,1426,4091,-261,89,-72
10863,-469,1435,4393,-254,99,-92
10873,-265,1613,4320,-401,18,-148
10883,-194,1664,4599,-506,29,-112
10893,-81,1631,4960,-694,125,-198
10903,192,1770,5162,-940,266,-167
10914,-8,1796,5214,-1161,413,-97
10924,-51,1715,5458,-1392,543,-196
10934,-113,1488,5926,-1648,532,-120
10944,36,1354,6297,-1868,641,-63
10954,234,1396,6458,-1922,929,-5
10964,262,1344,6774,-2100,1291,58
10974,66,898,6206,-2186,1491,201
10984,103,-899,6540,-1592,1819,482
10994,447,-2072,6998,-1071,2310,703
11004,384,-1770,7605,-331,2973,724
11014,-222,-490,8116,363,3574,470
11024,-1138,902,8190,296,3779,671
11034,-1292,1199,7775,-140,3793,753
11044,-920,166,7111,-544,3892,750
11054,-852,-825,6442,-682,4134,960
11064,-1081,-1149,5914,-430,4462,1165
11074,-1377,-939,5512,-154,4726,1342
11084,-1631,-601,4934,62,4847,1543
11094,-1888,-445,4446,305,4874,1770
11104,-1967,-476,4146,605,4839,1990
11115,-1989,-339,3762,849,4782,2159
11125,-1866,94,3187,1039,4783,2278
11135,-1958,647,2643,1180,4684,2409
11145,-1910,883,2332,1211,4540,2518
11155,-1688,980,1829,1223,4452,2600
11165,-1542,1086,1266,1286,4367,2677
11175,-1471,1295,976,1244,4287,2739
11185,-1505,1589,519,1013,4158,2742
11195,-1375,1738,277,682,4014,2732
11205,-1467,1829,-16,292,3796,2720
11215,-1584,1737,-295,-18,3461,2650
11225,-1532,1508,-572,-29,3066,2529
11235,-1525,1263,-665,313,2567,2389
11245,-1436,1438,-792,663,2152,2317
11255,-1247,2146,-1017,1026,1769,2189
11265,-1112,2813,-1356,1222,1430,2109
11275,-1042,3203,-1770,1302,1123,2027
11285,-910,3353,-2031,1373,887,1960
11295,-883,3377,-2170,1492,681,1900
11305,-885,3312,-1845,1610,483,1878
11316,-1066,3305,-1567,1706,318,1791
11326,-1249,3189,-1318,1815,124,1586
11336,-1423,2996,-1086,1932,-95,1418
11346,-1435,2871,-943,2032,-256,1243
11356,-1460,2954,-1003,2089,-366,1067
11366,-1442,3454,-1935,2075,-481,949
11376,-1002,3900,-1091,2120,-413,772
11386,-817,4375,-1857,1423,-38,836
11396,-1308,4123,-812,1261,92,843
11406,-2369,3867,-807,506,60,546
11416,-2497,3555,-1137,433,21,309
11426,-1966,2891,-1141,677,-8,199
11436,-1685,2501,-1182,1148,68,163
11446,-1736,2803,-932,1435,129,296
11456,-2226,3270,-552,1614,83,385
11466,-2711,3318,-135,1319,21,223
11476,-2651,3589,3,843,-100,47
11486,-2467,3533,-8,354,-215,-70
11496,-2455,3228,9,-4,-307,-260
11506,-2378,3039,-236,-62,-341,-361
11517,-2309,2819,-469,188,-398,-422
11527,-2177,2580,-610,733,-387,-450
11537,-1762,2848,-682,1316,-361,-234
11547,-1686,3404,-800,1784,-284,-11
11557,-2053,3569,-624,1964,-179,50
11567,-2219,3548,-422,1768,-157,115
11577,-2412,3557,-521,1374,-198,70
11587,-2538,3355,-633,1070,-295,-104
11597,-2523,3263,-857,674,-412,-160
11607,-2399,3172,-1260,534,-548,-221
11617,-2107,3066,-1379,415,-544,-191
11627,-2084,3235,-1403,317,-489,-50
11637,-2463,3214,-985,118,-332,26
11647,-2830,2991,-700,-123,-200,55
11657,-3057,2693,-547,-271,-113,26
11667,-3169,2669,-476,-324,-107,-42
11677,-3113,2933,-418,-376,-168,-127
11687,-2965,3352,-406,-474,-196,-164
11697,-2733,3523,-440,-519,-180,-219
11707,-2478,3716,-627,-632,-154,-199
11718,-2319,3842,-547,-592,-81,-141
11728,-2235,3800,-566,-536,48,-84
11738,-2153,3680,-434,-459,199,-23
11748,-2277,3549,-302,-367,293,79
11758,-2657,3214,-47,-326,325,56
11768,-3011,2794,114,-383,336,-24
11778,-3137,2607,151,-464,372,-128
11788,-3036,2705,144,-629,362,-176
11798,-2973,2799,292,-843,324,-190
11808,-2898,2774,291,-1153,256,-138
11818,-2890,3082,300,-1696,234,-107
11828,-2782,2881,106,-1593,314,-51
11838,-2820,2364,223,-1792,284,89
11848,-2928,2410,96,-1837,257,72
11858,-2748,2661,45,-1633,157,102
11868,-2684,2971,101,-1515,-8,223
11878,-2565,3388,239,-1448,-95,207
11888,-2521,3721,86,-1460,-176,116
11898,-2338,3608,-392,-1275,-262,-31
11908,-2083,3189,-759,-952,-309,-109
11919,-1907,3002,-932,-597,-299,-119
11929,-1891,3059,-684,-165,-245,-138
11939,-2141,3372,-305,111,-158,-158
11949,-2418,3847,-22,475,-174,-187
11959,-2462,4145,179,772,-323,-170
11969,-2675,4086,309,660,-484,-105
11979,-2952,3852,-19,434,-571,-313
11989,-2882,3727,-91,252,-519,-460
11999,-2774,3838,-132,-124,-481,-477
12009,-2613,3811,-46,-583,-428,-461
12019,-2596,3375,-386,-800,-444,-415
12029,-2561,2702,-740,-583,-411,-402
12039,-2433,2485,-941,-240,-310,-248
12049,-2397,3175,-1177,-26,-191,-47
12059,-2511,4166,-1039,-120,-142,22
12069,-2594,4832,-856,-712,-161,-39
12079,-2684,4822,-757,-1522,-225,-229
12089,-2528,4240,-588,-2299,-267,-463
12099,-2293,3553,-421,-2760,-341,-601
12109,-2116,3047,-281,-2959,-447,-550
12120,-1914,2706,-409,-2601,-512,-523
12130,-1608,2580,-278,-2087,-509,-548
12140,-1386,2992,-741,-1262,-558,-537
12150,-1051,4149,-1825,-227,-644,-550
12160,-889,4431,-2569,1532,-1157,-969
12170,-766,4744,-1727,1778,-1949,-1269
12180,-1480,5667,-1470,1360,-2526,-1296
12190,-2016,5546,-1286,635,-3042,-1595
12200,-1887,4527,-1172,-115,-3541,-1965
12210,-1981,3430,-781,-564,-4046,-2209
12220,-2051,2781,-412,-839,-4421,-2372
12230,-1945,2552,-61,-952,-4566,-2538
12240,-1837,2440,377,-835,-4618,-2671
12250,-1715,2266,574,-602,-4555,-2697
12260,-1625,2012,1066,-106,-4409,-2581
12270,-1650,1699,1593,392,-4299,-2440
12280,-1665,1332,2082,815,-4086,-2352
12290,-1552,1124,2411,1101,-3936,-2218
12300,-1322,1119,2889,1212,-3851,-2031
12310,-1073,1286,3126,1097,-3702,-1880
12321,-1098,1350,3372,820,-3568,-1744
12331,-1205,1268,3409,491,-3588,-1655
12341,-1154,984,3769,266,-3620,-1567
12351,-943,710,3951,12,-3646,-1556
12361,-546,1107,4023,-453,-3578,-1556
12371,-136,1932,3960,-773,-3445,-1490
12381,192,2041,3816,-891,-3114,-1366
12391,424,1201,3983,-1154,-2725,-1178
12401,664,222,4128,-1465,-2349,-1004
12411,961,-535,4037,-1583,-1885,-963
12421,1223,-1083,4137,-1493,-1465,-846
12431,1281,-1365,4585,-1435,-1088,-536
12441,1030,-1268,4609,-1428,-710,-257
12451,672,-1183,4538,-1182,-338,-196
12461,310,-1138,4500,-894,-55,-218
12471,17,-928,4348,-487,125,-223
12481,-92,-425,4340,-38,392,-223
12491,-123,289,4327,216,632,-287
12501,-337,1043,4275,216,741,-418
12511,-762,1591,4066,178,762,-487
12522,-1265,1863,4043,-18,757,-508
12532,-1701,2127,4174,-521,616,-641
12542,-1924,2371,3858,-1074,419,-893
12552,-2087,2237,3786,-1570,98,-1005
12562,-2192,1921,3624,-1945,-207,-951
12572,-2078,1583,3459,-1993,-417,-941
12582,-1836,1395,3452,-1841,-462,-913
12592,-1778,1355,3327,-1607,-372,-757
12602,-2015,1360,3542,-1372,-309,-545
12612,-2207,1286,3840,-1218,-300,-379
12622,-2058,881,3819,-937,-290,-310
12632,-1882,113,3901,-514,-305,-291
12642,-1979,-721,4136,-36,-446,-192
12652,-2152,-1079,4347,414,-529,-42
12662,-2451,-799,4473,726,-656,90
12672,-2582,-182,4662,937,-800,108
12682,-2571,349,4731,928,-996,130
12692,-2537,657,4763,813,-1218,169
12702,-2370,790,4628,788,-1332,177
12712,-2130,676,4411,874,-1324,162
12723,-1862,617,4015,1000,-1282,145
12733,-1512,741,4131,1139,-1154,259
12743,-1588,832,4339,1240,-1003,435
12753,-1343,922,4292,1217,-927,313
12763,-1122,1124,4418,1071,-804,307
12773,-1383,1300,4552,750,-753,465
12783,-1473,1235,4391,446,-767,350
12793,-1350,877,4165,294,-788,192
12803,-1259,573,4111,296,-808,179
12813,-1010,614,4014,367,-744,135
12823,-826,1107,3969,404,-595,142
12833,-991,1495,4413,316,-454,69
12843,-1220,1620,4160,-77,-377,30
12853,-974,1175,4003,-111,-302,-76
12863,-671,709,3883,-171,-259,-210
12873,-789,801,3826,-147,-213,-117
12883,-1091,1085,3798,-192,-271,-125
12893,-1298,1051,3785,-253,-426,-176
12903,-1450,672,3734,-282,-672,-194
12913,-1240,333,3067,-201,-832,-95
12924,-1232,-155,3911,235,-642,343
12934,-275,243,3834,347,-617,-188
12944,-439,737,4344,726,-286,235
12954,-964,1426,4475,572,-120,383
12964,-804,1713,4584,252,-26,228
12974,-1010,1657,4514,-83,-27,147
12984,-1127,1357,4528,-271,-80,86
12994,-868,1116,4535,-337,-105,-76
13004,-937,1125,4583,-400,-80,-105
13014,-1056,1402,4467,-406,-53,-228
13024,-981,1400,4388,-343,-99,-285
13034,-981,1089,4271,-323,-159,-243
13044,-770,864,4029,-228,-238,-282
13054,-596,813,3806,-126,-312,-222
13064,-516,810,3665,30,-276,-162
13074,-432,936,3865,-30,-348,-159
13084,-298,1109,3864,-28,-338,-191
13094,-248,1154,3952,82,-275,-155
13104,-370,1346,3960,45,-294,-181
13114,-255,1649,3988,110,-244,-234
13125,-172,2008,4031,147,-214,-81
13135,-225,2164,4315,104,-194,0
13145,-285,2129,4069,44,-136,-3
13155,-328,1995,4020,71,-165,30
13165,-351,1832,3834,79,-150,94
13175,-323,1623,3628,127,-139,125
13185,-344,1389,3476,132,-135,179
13195,-475,1215,3287,234,-159,223
13205,-386,1232,3309,285,-133,191
13215,-427,1313,3518,298,-162,281
13225,-426,1461,3589,260,-65,296
13235,-412,1472,3707,266,-98,264
13245,-473,1349,3848,230,-30,374
13255,-646,1237,3625,283,-25,351
13265,-642,1090,3806,319,-102,375
13275,-749,1018,3830,311,-151,505
13285,-740,947,3838,319,-225,433
13295,-638,845,3921,283,-225,451
13305,-650,821,3760,235,-297,450
13315,-550,884,3712,257,-325,399
13326,-556,994,3750,249,-273,407
13336,-524,1251,3793,198,-296,333
13346,-524,1499,3875,150,-281,385
13356,-630,1627,3977,96,-317,420
13366,-562,1629,4137,73,-352,276
13376,-473,1539,4084,17,-350,162
13386,-349,1446,3912,123,-320,44
13396,-122,1496,3929,158,-304,-29
13406,-123,1550,3926,154,-210,-8
13416,-193,1550,3858,65,-132,-69
13426,-173,1477,3793,-56,-85,-154
13436,-219,1346,3772,-175,-53,-146
13446,-301,1274,3723,-242,-27,-129
13456,-384,1068,3774,-204,-83,-104
13466,-351,971,3773,-210,-165,-43
13476,-175,1111,3809,-157,-180,-14
13486,-51,1240,3954,-56,-40,9
13496,-136,1343,3895,-97,-12,-17
13506,-203,1364,3637,-107,7,-3
13516,-295,1229,3414,-11,38,76
13527,-440,1145,3443,94,16,99
13537,-366,1151,3446,162,40,123
13547,-317,1139,3445,199,58,127
13557,-153,1232,3472,157,76,151
13567,-88,1479,3450,146,144,300
13577,-201,1794,3494,191,189,360
13587,-291,2091,3558,199,208,296
13597,-321,2302,3744,144,194,256
13607,-409,2448,3918,-13,118,202
13617,-550,2453,3983,-124,34,123
13627,-575,2321,4070,-218,-30,35
13637,-551,2183,4044,-256,-70,-30
13647,-659,2062,4117,-243,-156,-74
13657,-797,2087,3897,-176,-320,-115
13667,-625,2358,3873,-110,-355,-157
13677,-463,2637,3675,-104,-282,-153
13687,-406,2618,3723,-145,-208,-122
13697,-431,2264,3677,-209,-149,-10
13707,-567,1845,3558,-275,-139,41
13717,-464,1362,3524,-198,-99,-16
13728,-164,831,3577,-88,-34,-15
13738,-81,461,3545,52,9,41
13748,-53,263,3667,207,89,110
13758,-120,352,3977,213,131,142
13768,-231,516,4059,197,145,177
13778,-190,597,4116,133,146,293
13788,-96,740,4081,104,118,296
13798,81,875,4147,112,116,278
13808,176,1129,4065,-9,93,272
13818,68,1352,4053,32,84,203
13828,-15,1380,3951,2,55,189
13838,-36,1385,3969,-7,-13,131
13848,30,1211,3915,30,-35,89
13858,77,1100,3807,13,-94,71
13868,191,1167,3794,97,-111,-1
13878,180,1196,3953,126,-92,59
13888,-15,1262,3846,94,-149,40
13898,-63,1151,4066,150,-164,8
13908,-55,1182,4192,16,-235,22
13918,27,1354,4275,-2,-246,46
13929,14,1495,4501,-15,-208,62
13939,-107,1781,4264,-92,-233,-11
13949,-101,1873,4201,-48,-213,-68
13959,-109,1783,4089,-101,-185,-72
13969,-252,1747,3697,-152,-202,-120
13979,-226,1667,3608,-126,-162,-129
13989,-141,1628,3561,-182,-95,-129
13999,-229,1608,3525,-190,-27,-136
14009,-371,1486,3528,-203,14,-79
14019,-424,1497,3500,-302,30,-63
14029,-421,1498,3674,-295,103,-16
14039,-465,1435,3825,-416,142,-18
14049,-483,1411,3844,-478,164,-104
14059,-408,1165,4005,-528,189,-94
14069,-386,1024,4061,-654,179,-85
14079,-407,807,4130,-529,153,-109
14089,-338,525,4017,-452,102,-148
14099,-169,573,3854,-338,78,-217
14109,23,743,4095,-165,158,-261
14119,8,1111,3930,-279,178,-261
14130,-121,1287,3885,-220,189,-214
14140,-157,1212,3899,-343,144,-186
14150,-182,1141,3537,-400,100,-192
14160,-60,1008,3643,-333,112,-191
14170,3,1081,3626,-356,126,-198
14180,-35,1244,3457,-235,170,-216
14190,-74,1265,3605,-127,208,-198
14200,-146,1390,3533,-163,216,-200
14210,-275,1393,3418,-86,220,-189
14220,-323,1264,3489,-90,184,-218
14230,-346,1106,3458,-67,164,-188
14240,-380,895,3533,-10,135,-114
14250,-379,828,3669,-10,88,-67
14260,-442,927,3827,55,61,-41
14270,-461,926,4056,123,19,-1
14280,-419,938,4221,144,-7,18
14290,-379,918,4353,241,-10,41
14300,-202,996,4458,215,93,48
14310,-327,1126,4530,261,148,58
14320,-498,1213,4812,312,180,40
14330,-675,1302,4822,276,160,84
14340,-779,1371,4733,243,159,151
14350,-772,1397,4551,207,130,74
14360,-703,1454,4392,255,144,20
14370,-718,1496,4321,289,119,42
14381,-712,1610,4167,217,72,74
14391,-760,1530,3943,210,60,127
14401,-639,1415,3818,177,70,168
14411,-486,1399,3922,170,84,199
14421,-549,1413,3895,102,77,217
14431,-521,1497,3743,44,23,199
14441,-536,1511,3595,62,-33,210
14451,-520,1358,3605,109,-55,260
14461,-491,1307,3568,136,-95,235
14471,-401,1298,3540,230,-105,186
14481,-360,1205,3482,238,-122,193
14491,-314,1178,3274,236,-87,197
14501,-317,1255,3169,316,-41,217
14511,-328,1361,3208,356,-33,296
14521,-427,1426,3243,353,-99,352
14531,-505,1348,3512,391,-177,365
14541,-522,1213,3657,383,-240,336
14551,-393,1105,3734,410,-310,312
14561,-276,1102,3786,488,-334,354
14571,-308,1232,3773,554,-342,376
14581,-430,1368,3878,613,-319,339
14591,-556,1276,3927,588,-283,271
14601,-621,1084,4072,490,-334,221
14611,-504,934,4003,449,-370,140
14621,-280,962,3907,404,-413,70
14632,-82,1102,3824,323,-411,103
14642,-88,1175,3628,286,-448,192
14652,-180,1175,3431,239,-527,239
14662,-115,1216,3319,192,-565,238
14672,47,1202,3171,197,-520,215
14682,122,1293,3038,232,-483,136
14692,187,1527,3041,247,-481,64
14702,303,1642,3201,228,-430,55
14712,173,1624,3439,98,-378,75
14722,47,1572,3393,-51,-378,10
14732,137,1432,3403,-57,-358,-79
14742,305,1342,3438,-135,-333,-122
14752,420,1372,3503,-188,-245,-182
14762,404,1406,3543,-239,-142,-200
14772,306,1456,3458,-239,-48,-261
14782,271,1464,3510,-286,-11,-317
14792,197,1563,3524,-433,61,-303
14802,89,1801,3537,-585,104,-313
14812,19,1961,3413,-705,140,-300
14822,-6,1914,3293,-765,148,-312
14832,-8,1863,3097,-807,174,-344
14842,58,1885,3018,-761,221,-335
14852,131,2120,2898,-687,320,-379
14862,149,2421,2846,-630,464,-413
14872,61,2563,2719,-625,614,-412
14883,-107,2568,2656,-657,733,-386
14893,-285,2374,2721,-544,867,-303
14903,-402,2011,2924,-259,959,-274
14913,-456,1592,3268,170,1084,-243
14923,-463,1281,3607,451,1136,-197
14933,-322,884,4187,691,1054,-83
14943,-399,430,4806,773,1083,46
14953,-522,421,4983,641,997,18
14963,-724,622,5493,591,978,-22
14973,-661,1122,5482,292,889,-64
14983,-592,1749,5202,-5,786,-70
14993,-376,1566,4697,-255,672,-195
15003,-125,1177,4018,-431,522,-175
15013,95,964,3820,-372,454,-203
15023,0,1045,3608,-317,361,-154
15033,-144,1687,3762,-224,322,-188
15043,-524,1800,4156,-178,281,-183
15053,-843,1706,3852,-225,190,-149
15063,-662,1464,3979,-125,205,-227
15073,-729,1249,3832,-127,132,-129
15083,-784,1220,3770,-115,102,-170
15093,-703,1077,4095,-47,157,-176
15103,-919,1317,3684,-200,88,-87
15113,-628,1410,3757,-198,79,-204
15123,-525,1120,3798,-176,67,-119
15134,-700,1721,3503,-180,44,-10
15144,-551,1583,3842,-106,73,-37
15154,-709,1502,3581,-139,45,72
15164,-617,1521,3781,-72,69,47
15174,-699,1291,4024,-64,108,151
15184,-810,1817,3754,-104,112,137
15194,-667,1580,4120,-94,137,88
15204,-817,1089,4035,-143,132,170
15214,-704,1736,4083,-64,181,86
15224,-822,1457,4062,-65,137,135
15234,-827,1204,3677,-98,104,77
15244,-562,1170,3945,-33,132,21
15254,-987,885,4020,9,90,114
15264,-696,1606,3832,-27,124,-32
15274,-710,1476,4303,21,117,-53
15284,-1166,1339,3827,-58,71,10
15294,-612,1164,3665,-65,70,-105
15304,-866,429,3742,-35,-11,-4
15314,-858,981,3572,-81,18,-59
15324,-816,934,4070,-55,4,-76
15334,-1160,799,3717,-103,-50,-47
15344,-408,1671,3753,-95,-10,-238
15354,-1030,793,4066,-32,-127,-111
15364,-982,883,3388,-141,-109,-143
15374,-361,1276,3770,-82,-109,-225
15385,-1083,1062,3784,-103,-140,-54
15395,-900,1564,3524,-179,-92,-145
15405,-709,877,3825,-109,-66,-103
15415,-906,933,3460,-170,-25,-47
15425,-587,1857,3797,-160,59,-163
15435,-963,1330,3944,-180,57,-43
15445,-1011,1487,3552,-218,73,-103
15455,-551,1178,3801,-101,89,-123
15465,-962,935,3467,-160,41,27
15475,-754,1115,3721,-144,85,-81
15485,-878,664,3941,-86,78,24
15495,-938,1627,3581,-152,94,-42
15505,-633,1834,3930,-72,115,-76
15515,-1054,616,3556,-134,27,99
15525,-622,1061,3666,-98,91,-81
15535,-747,1231,4000,-26,66,41
15545,-1224,1476,3654,-146,42,36
15555,-656,1314,3896,-66,62,-63
15565,-983,616,3664,-38,17,115
15575,-745,1273,3428,-104,49,-40
15585,-623,1169,4041,24,37,-23
15595,-1273,1134,3693,-80,0,70
15605,-710,1345,3674,-53,14,-79
15615,-804,695,3519,-84,-49,60
15625,-893,965,3449,-103,-35,-2
15636,-720,1134,3860,-10,-10,-8
15646,-1083,1158,3580,-82,-38,73
15656,-602,1420,3505,-99,-24,-53
15666,-815,693,3835,2,-66,73
15676,-974,1196,3560,-36,-35,45
15686,-664,1547,3755,25,-36,-9
15696,-912,791,3563,-24,-86,95
15706,-697,1140,3544,-21,-38,-3
15716,-804,796,3807,70,-52,87
15726,-959,1181,3380,-27,-51,82
15736,-445,1317,3567,7,-39,-9
15746,-867,523,3819,50,-60,133
15756,-927,1578,3718,10,1,33
15766,-782,1135,3712,36,-67,46
15776,-788,594,3502,-5,-59,65
15786,-555,1204,3800,32,-28,11
15796,-939,981,3761,23,-67,113
15806,-660,1137,3468,-32,-35,11
15816,-446,1351,3880,24,-9,13
15826,-1102,1159,3807,-43,-34,88
15836,-748,1241,3640,-19,12,-47
15846,-613,781,3818,6,3,5
15856,-932,1080,3718,-51,13,-1
15866,-680,1171,3952,-52,32,-47
15876,-906,826,3942,-74,23,23
15887,-768,1514,3608,-116,33,-69
15897,-608,1166,3984,-4,46,-51
15907,-968,1041,3741,-76,42,25
15917,-635,1328,3815,-46,69,-87
15927,-830,782,3842,-28,28,20
15937,-912,1248,3783,-75,51,-35
15947,-709,1125,4109,-22,58,-35
15957,-1037,1121,3827,-81,24,34
15967,-610,1553,3766,-84,38,-84
15977,-769,831,3991,12,-23,22
15987,-1004,1034,3821,-47,-18,30
15997,-749,1121,4042,11,-40,-15
16007,-970,938,3999,-19,-68,52
16017,-785,1485,4010,-35,-64,-45
16027,-790,1027,4255,19,-67,19
16037,-968,909,3771,-73,-107,73
16047,-475,1395,3926,-42,-74,-69
16057,-778,1136,4175,8,-99,60
16067,-1069,1417,3848,-41,-104,53
16077,-764,1239,3799,-29,-123,16
16087,-787,802,3732,-19,-141,84
16097,-824,1213,3839,34,-101,64
16107,-893,1077,4086,102,-83,98
16117,-942,1168,3874,28,-115,117
16127,-762,1372,4038,88,-89,33
16138,-847,979,3980,60,-141,130
16148,-837,1093,3789,61,-139,103
16158,-674,1200,4058,140,-132,57
16168,-836,1134,3979,84,-181,142
16178,-815,1135,3944,84,-183,85
16188,-744,938,3905,74,-179,120
16198,-763,1109,3681,23,-216,153
16208,-714,1289,3924,96,-148,92
16218,-790,1235,3784,52,-169,137
16228,-798,1318,3602,20,-189,140
16238,-746,1003,3812,83,-149,98
16248,-766,940,3728,81,-158,159
16258,-775,1170,3866,154,-121,110
16268,-710,1059,4030,182,-98,100
16278,-673,1269,3769,128,-123,114
16288,-617,1120,4019,205,-79,44
16298,-535,1017,3822,112,-109,75
16308,-606,1248,3875,155,-116,48
16318,-516,1026,4021,163,-135,-8
16328,-473,1012,4021,136,-163,31
16339,-491,1002,4287,173,-148,-13
16349,-494,982,4092,71,-211,-40
16359,-468,1179,4039,72,-233,-71
16369,-542,1223,4194,54,-231,-71
16379,-522,1500,4049,-76,-274,-9
16389,-529,1611,4114,-92,-220,12
16399,-535,1552,4146,-188,-193,21
16409,-497,1611,4043,-209,-199,31
16419,-543,1536,3991,-121,-163,31
16429,-510,1475,3828,-100,-198,18
16439,-478,1422,3614,-42,-211,50
16449,-528,1254,3647,41,-157,46
16459,-495,1339,3438,-13,-164,54
16469,-524,1505,3330,43,-126,108
16479,-487,1631,3370,31,-87,108
16489,-475,1698,3432,-12,-74,151
16499,-554,1449,3606,12,-17,175
16509,-471,1279,3515,32,0,121
16519,-370,1356,3628,141,63,145
16529,-496,1413,3926,116,108,153
16540,-525,1369,3864,70,93,154
16550,-574,1188,3942,50,108,173
16560,-408,1169,3843,14,87,127
16570,-342,1197,3912,42,134,157
16580,-413,1185,3945,-2,132,123
16590,-365,1254,3680,-33,79,118
16600,-366,1157,3850,11,102,119
16610,-360,1221,3736,5,87,97
16620,-456,1400,3786,32,86,80
16630,-380,1255,3934,-25,72,52
16640,-417,1159,3816,-48,35,56
16650,-520,954,3989,-43,31,29
16660,-432,996,3885,-58,20,-21
16670,-368,1335,3769,-38,10,-28
16680,-440,1151,3830,-82,-15,-18
16690,-402,1203,3529,-110,0,-15
16700,-464,1284,3636,-99,13,-24
16710,-381,1315,3601,-105,37,-15
16720,-542,1427,3626,-64,65,-18
16730,-534,1073,3744,-69,84,15
16741,-417,1043,3662,-102,88,-1
16751,-450,1369,3875,-36,125,-30
16761,-603,1277,4064,-97,93,-28
16771,-572,1284,3911,-102,59,-56
16781,-510,1039,4029,-107,31,-68
16791,-454,1003,3804,-163,3,-38
16801,-488,1146,3786,-136,-10,-60
16811,-429,1124,3894,-154,26,-23
16821,-517,1598,3635,-177,24,-57
16831,-524,1521,3793,-97,34,-79
16841,-473,1088,3629,-153,30,-21
16851,-512,1267,3632,-75,61,-45
16861,-481,1173,3797,-44,78,-38
16871,-536,1274,3806,-60,90,-20
16881,-705,1108,3895,-66,60,-20
16891,-649,565,3785,-101,35,41
16901,-390,1047,3683,-56,82,-7
16911,-503,1472,4017,11,111,20
16921,-658,1582,3833,-70,89,36
16931,-605,1399,3846,-50,83,-20
16942,-434,866,3757,-93,58,55
16952,-557,1159,3673,-67,75,33
16962,-601,1181,3923,-4,65,28
16972,-613,999,3756,-56,33,61
16982,-500,1307,3760,-21,17,-15
16992,-601,796,4011,-27,-35,49
17002,-675,866,3654,-20,-62,44
17012,-463,1245,3918,53,-41,-23
17022,-541,1328,3863,-28,-59,43
17032,-681,1149,3867,-13,-102,5
17042,-507,516,3987,-13,-90,31
17052,-404,897,3628,-99,-71,24
17062,-271,1790,3843,-9,15,-9
17072,-484,2032,3899,-84,46,35
17082,-693,1605,3670,-116,34,-2
17092,-471,692,3645,-106,27,4
17102,-331,599,3667,-57,73,35
17112,-538,1258,3907,29,86,18
17122,-702,1297,4078,20,87,17
17132,-655,1116,3814,-105,-1,-18
17143,-447,856,3965,-82,-14,-44
17153,-459,855,3962,-94,-38,-25
17163,-563,1406,3970,-24,-25,-80
17173,-560,1421,4162,-58,-68,-122
17183,-575,988,3962,-168,-155,-110
17193,-628,403,3913,-148,-235,-100
17203,-619,-5,3822,-187,-337,-87
17213,-385,674,3725,-127,-357,-184
17223,-383,1468,4065,36,-305,-198
17233,-607,1626,4000,-87,-355,-145
17243,-668,1328,3718,-225,-388,-134
17253,-561,859,3633,-287,-392,-207
17263,-350,846,3354,-232,-361,-289
17273,-383,974,3444,-65,-245,-261
17283,-496,850,3463,-18,-187,-185
17293,-517,954,3274,-111,-217,-100
17303,-474,979,3398,-11,-177,-102
17313,-297,1096,3368,30,-167,-139
17323,-172,1341,3600,136,-137,-163
17333,-153,1363,3924,198,-99,-130
17344,-201,1319,4001,143,-106,-26
17354,-297,1212,4120,129,-91,23
17364,-148,1302,3942,87,-71,1
17374,7,1919,3890,213,14,-22
17384,11,2267,4137,319,130,-86
17394,-105,2349,4027,132,77,-10
17404,-220,1939,3956,122,63,-54
17414,-23,1575,3796,127,109,-100
17424,41,1668,3853,194,150,-67
17434,-116,1541,3986,180,202,-87
17444,-355,1226,3890,-4,142,9
17454,-460,998,3837,-20,123,14
17464,-267,881,3979,83,192,-46
17474,-183,1356,4059,136,187,-23
17484,-358,1620,4356,189,187,-51
17494,-456,1453,4411,75,142,-65
17504,-472,1347,4356,-44,73,-55
17514,-421,1110,4283,-67,28,-85
17524,-269,1321,4026,-148,-21,-64
17534,-186,1584,4123,33,58,-145
17545,-290,1554,4085,-97,2,-93
17555,-383,1639,3890,-97,-32,-68
17565,-307,1612,3928,40,-14,-164
17575,-160,1775,3859,80,-40,-120
17585,-295,1640,4103,70,-78,-65
17595,-389,1023,4192,7,-108,-17
17605,-199,944,4028,-54,-110,54
17615,70,1383,4168,129,44,11
17625,16,1992,4133,210,123,63
17635,-275,2210,4198,200,89,126
17645,-515,1812,4040,112,6,96
17655,-425,1327,3780,104,-67,70
17665,-208,1151,3472,213,-28,74
17675,-68,1273,3408,348,68,80
17685,-156,1590,3349,389,129,141
17695,-536,1663,3304,369,109,152
17705,-486,1594,3336,281,34,90
17715,-297,1549,3240,289,38,136
17725,-191,1438,3299,329,64,174
17735,-149,1437,3178,335,110,216
17746,-178,1336,3198,318,173,276
17756,-163,1350,3207,287,210,280
17766,-67,1585,3556,298,280,344
17776,-30,1736,3949,325,347,430
17786,-76,1907,4330,247,391,477
17796,-375,1755,4342,245,356,460
17806,-466,1499,4068,256,349,355
17816,-431,1470,3985,275,330,269
17826,-514,1493,3914,340,299,257
17836,-489,1567,4028,412,220,209
17846,-560,1686,4134,410,150,232
17856,-531,1697,3962,379,73,252
17866,-445,1909,3803,272,-5,201
17876,-452,1827,3577,208,-12,211
17886,-309,1630,3217,172,-9,203
17896,-291,1374,3067,136,-20,258
17906,-284,1293,3024,187,-15,304
17916,-320,1399,3163,183,-62,341
17926,-358,1481,3262,185,-141,346
17936,-260,1621,3554,54,-256,322
17947,-210,1766,3435,-58,-337,270
17957,-12,1547,3643,-76,-358,185
17967,232,1360,3677,-127,-303,157
17977,308,1351,3776,-99,-167,196
17987,329,1559,3870,-108,-85,196
17997,245,1613,3821,-3,-39,226
18007,60,1388,4098,65,-35,260
18017,-45,1347,4082,166,-73,244
18027,-28,1312,4186,218,-143,201
18037,-23,1399,4264,233,-186,119
18047,-128,1542,4308,134,-275,94
18057,-46,1664,4189,104,-326,-56
18067,69,1705,4273,91,-348,-167
18077,19,1648,3966,149,-373,-105
18087,52,1589,3993,188,-355,-100
18097,21,1576,3963,218,-389,-127
18107,41,1567,4106,240,-404,-86
18117,103,1692,4096,197,-428,-96
18127,126,1746,3736,192,-419,-78
18137,81,1738,3731,219,-366,-18
18148,8,1710,3356,350,-309,40
18158,7,1699,3093,522,-257,120
18168,14,1912,3054,569,-242,142
18178,9,2096,3006,632,-240,203
18188,-48,2309,3060,675,-239,267
18198,-101,2482,3077,742,-223,250
18208,-93,2621,3170,760,-223,265
18218,-177,2803,3210,699,-222,290
18228,-229,2983,2875,657,-184,278
18238,-119,3134,2935,628,-163,263
18248,3,3171,2809,502,-165,285
18258,42,2886,2658,420,-167,318
18268,231,2645,3096,317,-188,216
18278,423,2476,2988,177,-221,181
18288,391,2337,2993,69,-193,195
18298,127,2280,3139,15,-147,237
18308,-27,2172,2996,73,-121,275
18318,152,2127,3457,77,-107,231
18328,389,2185,3410,26,-128,257
18338,535,2148,3420,67,-130,253
18349,610,1902,3427,142,-117,214
18359,465,1796,3093,134,-108,214
18369,388,1780,3250,184,-6,172
18379,225,1748,3177,129,21,176
18389,219,1817,3236,50,37,133
18399,396,1907,3749,-56,71,136
18409,364,1998,3345,-139,67,197
18419,432,2066,3557,-172,101,125
18429,415,2053,3626,-234,81,112
18439,236,1926,3201,-112,123,91
18449,123,1865,3474,-12,146,22
18459,75,1995,3081,-2,91,21
18469,321,1977,3414,51,117,-31
18479,383,1969,3533,-17,137,15
18489,331,2084,3476,4,129,44
18499,460,2213,3867,64,149,26
18509,404,2308,3517,143,108,-1
18519,227,2557,3406,79,130,3
18529,-179,2507,3507,34,141,37
18539,-287,2512,3539,-44,80,15
18550,233,2586,4073,18,51,-31
18560,458,2776,3653,-38,-41,-79
18570,336,2848,3652,-169,-2,-61
18580,101,2725,3693,-195,11,35
18590,-80,2577,3215,-163,-64,-29
18600,142,2296,3624,-156,-71,-86
18610,36,2015,3524,-153,-112,-15
18620,162,1963,3576,-70,-133,-54
18630,355,1948,3975,-65,-131,-10
18640,65,2262,3456,-150,-156,38
18650,169,2442,3890,-110,-111,55
18660,65,2597,3682,-195,-153,78
18670,95,2693,3308,-168,-193,-35
18680,154,2345,3503,-126,-165,37
18690,-98,2313,3203,-189,-205,60
18700,2137,2812,4949,-1652,-708,-1344
18710,-131,2055,2154,157,725,175
18720,-2647,806,3604,520,-399,1322
18730,912,2210,3488,144,-467,-244
18740,2485,2164,4040,-296,-225,-471
18751,2895,2727,2752,-1417,291,-1183
18761,-1375,1233,3471,-253,129,-43
18771,-1883,717,2989,220,-127,364
18781,653,1777,3640,372,-173,93
18791,1102,3086,3456,284,-12,12
18801,-139,1887,3410,466,-239,741
18811,466,2082,3779,37,-189,-77
18821,1202,2361,2995,-341,74,-523
18831,15,2245,3508,-161,188,-126
18841,-429,1892,3406,-301,35,-64
18851,59,1674,3449,-127,16,-172
18861,748,1612,3764,-20,7,-141
18871,295,1737,3514,-20,51,18
18881,197,1862,3470,28,47,-18
18891,194,1899,3664,8,48,8
18901,315,2013,3192,-39,-9,-2
18911,272,1886,3588,-54,94,-36
18921,121,1859,3480,-191,113,-68
18931,298,2183,3508,-208,111,-103
18941,290,2114,3979,-274,103,-47
18952,259,2128,3093,-240,26,57
18962,220,2092,3664,-54,67,111
18972,71,2094,3634,-81,61,164
18982,60,2263,3288,-93,46,89
18992,304,1808,3392,-67,26,51
19002,52,1896,3266,-33,55,2
19012,214,2137,3767,-73,54,-60
19022,354,2254,3881,-242,-29,7
19032,417,2108,3611,-188,-60,-48
19042,393,1990,3636,-88,-48,-44
19052,182,2135,3045,0,-20,-28
19062,232,1779,3254,50,50,36
19072,300,1640,3798,39,47,133
19082,415,2128,3701,19,6,32
19092,603,2121,4171,-45,39,-62
19102,279,2252,3442,-137,-7,-70
19112,201,2075,3434,-70,15,-110
19122,408,1951,3794,-177,-67,1
19132,257,2186,3274,-173,-105,-18
19142,304,1949,3531,-105,-85,-28
19153,318,1906,3319,-65,-113,-13
19163,373,2140,3476,65,-67,-60
19173,586,2173,3916,-5,-92,-7
19183,410,2302,3445,-66,-106,-27
19193,748,2049,3330,-39,-127,-29
19203,555,1995,3442,-82,-89,201
19213,298,2002,3279,-31,-113,72
19223,615,1999,3741,-85,-109,1
19233,618,2035,3113,-148,-148,-29
19243,763,1817,3412,-30,-71,-22
19253,612,1883,3755,-155,-69,-39
19263,568,1964,3316,-149,-107,-106
19273,798,1965,3919,-142,-48,-129
19283,760,2194,3667,-244,-70,-124
19293,703,2085,3359,-226,11,-139
19303,706,1947,3819,-278,126,-143
19313,416,2063,3442,-316,135,-202
19323,645,2019,4113,-230,209,-242
19333,517,2173,3680,-306,168,-245
19343,292,1978,3437,-174,203,-205
19354,251,1978,3830,-84,217,-142
19364,136,2139,3823,-80,175,-167
19374,593,2117,3809,-23,145,-192
19384,331,1825,3968,-60,168,-76
19394,161,2002,3840,-75,151,-184
19404,498,1903,4019,-131,161,-201
19414,138,1925,4110,-175,96,-197
19424,238,2141,4017,-149,81,-267
19434,452,1989,3874,-111,64,-210
19444,164,2077,3268,-64,62,-169
19454,20,1800,3300,-11,113,-72
19464,12,1751,3534,-4,53,-144
19474,333,1875,3413,109,-19,-140
19484,96,1860,3798,162,-15,-158
19494,229,2259,3778,142,-114,-133
19504,234,2285,3746,204,-128,-98
19514,522,2322,3921,163,-130,-98
19524,353,2460,3374,157,-167,-29
19534,203,2178,3588,230,-132,53
19544,85,2268,3445,161,-202,62
19555,177,2134,3509,157,-133,44
19565,163,2174,3953,20,-174,55
19575,410,2461,3689,-46,-283,28
19585,492,2348,3548,-18,-316,88
19595,363,2263,2952,-8,-404,203
19605,331,2173,2953,69,-391,252
19615,421,2128,3656,-110,-333,250
19625,398,2081,3225,-349,-442,134
19635,855,1897,3513,-317,-287,-195
19645,1000,1617,3586,29,-80,-542
19655,568,2381,3471,-98,-147,-649
19665,517,2206,3735,-50,-59,-329
19675,701,2109,3308,-304,-157,-201
19685,542,2201,3398,-320,-133,-35
19695,928,1844,3514,-242,-98,212
19705,683,909,3338,-288,-60,389
19715,727,652,3692,-215,-71,342
19725,635,1969,3945,69,-105,61
19735,433,2169,3816,34,-121,96
19745,256,1904,3231,-31,-140,168
19756,-46,1549,2925,-26,-69,170
19766,145,1357,3105,-37,-25,184
19776,202,1262,3136,-128,-35,121
19786,404,1061,3325,-236,25,55
19796,498,1115,3654,-298,25,33
19806,397,1492,3590,-279,-30,8
19816,477,1660,3642,-223,2,-12
19826,417,1671,3776,-205,45,-19
19836,262,1828,3518,-160,56,-55
19846,217,1744,3492,-92,88,-52
19856,166,1601,3367,-56,25,-14
19866,203,1638,3316,44,13,-35
19876,277,1804,3644,45,27,-27
19886,289,1947,3709,-39,-48,33
19896,417,2064,3815,-28,-65,73
19906,525,2074,3782,-13,-73,80
19916,522,1950,3696,11,0,66
19926,505,1834,3922,-78,17,24
19936,404,1854,3805,-155,6,50
19946,606,1663,3993,-106,107,-135
19957,396,1626,4143,-137,115,-97
19967,314,1625,3981,-88,7,6
19977,423,1651,4223,-40,-8,38
19987,389,1746,4023,-63,55,-90
19997,301,1802,3930,-126,136,-139
20007,136,1616,3846,-215,97,-79
20017,89,1374,3518,-166,26,-43
20027,216,1188,3827,-77,5,-4
20037,209,1370,3854,-3,-92,0
20047,298,1571,3796,100,-91,-55
20057,311,1681,3875,81,-88,-70
20067,311,1821,3786,62,-50,-71
20077,257,1762,3766,3,-50,-72
20087,154,1399,3671,-67,-94,0
20097,294,1111,3500,10,-73,18
20107,429,1154,3854,77,-5,35
20117,297,1409,3671,144,-5,59
20127,443,1744,3687,239,29,105
20137,436,1832,3931,254,78,185
20147,372,2015,3681,264,164,156
20158,258,1843,3748,168,310,121
20168,208,1373,3403,186,247,75
20178,282,1487,3535,303,312,109
20188,193,1716,3778,339,292,226
20198,269,1901,3662,459,394,231
20208,349,1914,4035,512,567,248
20218,325,2210,3679,400,506,232
20228,-3,1928,3630,336,531,304
20238,-129,1727,3678,239,410,306
20248,-221,1685,3432,262,252,265
20258,-7,1700,3926,331,272,269
20268,-97,1691,3958,319,175,248
20278,-118,1650,3661,470,129,109
20288,-61,1525,4023,455,59,50
20298,-331,1604,3758,457,-76,-190
20308,-384,1684,3637,402,-147,-350
20318,-296,1813,3762,168,-210,-441
20328,-196,1950,3740,-88,-166,-468
20338,60,2116,4087,-299,-126,-426
20348,-235,2126,4149,-499,-129,-410
20359,391,1903,3909,-439,-175,-363
20369,412,2100,3803,-290,-89,-392
20379,553,2127,3410,-172,31,-322
20389,117,2127,3438,-33,112,-202
20399,-29,2141,3310,32,42,-154
20409,68,2282,3402,129,29,-131
20419,210,2313,3850,93,21,-81
20429,111,2199,3608,50,25,-45
20439,162,1999,3760,116,0,-15
20449,240,1994,3853,87,-57,13
20459,205,2020,3590,96,-45,-4
20469,229,1852,3781,72,-11,11
20479,112,1710,3625,-22,-13,50
20489,122,1645,3769,7,3,34
20499,159,1765,4015,-5,-19,5
20509,113,1972,3732,37,24,-54
20519,200,2035,3968,39,10,-32
20529,180,2099,3871,-55,-29,5
20539,85,2105,3496,-40,-6,-7
20549,78,1939,3646,-48,5,9
20560,73,1869,3212,-81,-39,-10
20570,247,1878,3579,5,8,-15
20580,231,1984,3831,-67,-56,17
20590,284,1923,3579,13,-11,-26
20600,387,1957,3929,70,10,-36
20610,363,2030,3687,27,34,-31
20620,124,1920,3451,44,68,-44
20630,102,1778,3706,-45,-34,-15
20640,314,1901,3772,-106,-59,-6
20650,312,2032,4090,-86,-33,-39
20660,123,1959,3600,-61,-26,-89
20670,193,1799,3520,40,20,-101
20680,82,1840,3504,38,-18,-68
20690,121,1951,3357,50,-38,-66
20700,252,1968,3786,-19,4,-22
20710,96,1932,3613,-122,-35,-18
20720,184,1807,3463,-36,13,-19
20730,156,1871,3856,-27,5,-24
20740,81,1977,3581,-17,-3,-51
20750,95,2075,3681,51,5,-81
20761,58,2055,3600,-3,-1,-47
20771,83,1897,3363,-14,44,-40
20781,21,1691,3422,-32,61,5
20791,-38,1598,3191,-21,39,22
20801,151,1793,3610,-15,33,53
20811,214,1972,3967,-132,-42,95
20821,179,1936,3850,-90,-70,41
20831,220,1876,3776,-19,-58,-18
20841,126,1908,3461,-3,-50,-33
20851,157,1792,3341,19,-24,-12
20861,152,1852,3617,-42,-36,5
20871,179,1837,3400,-62,-83,-47
20881,394,1929,3852,-31,-46,-58
20891,287,1953,3695,-59,-10,-71
20901,68,1749,3234,1,8,-99
20911,233,1699,3575,16,-41,-67
20921,247,2003,3595,-63,-68,-36
20931,226,1940,3518,-76,-8,-33
20941,161,1718,3440,-115,-17,-6
20951,160,1768,3324,-90,-14,3
20962,196,1901,3688,-93,-47,-10
20972,270,2051,3672,-82,-63,-16
20982,186,1952,3625,-44,-18,-52
20992,209,1801,3562,-14,-31,-64
21002,261,1849,3534,-10,-24,-55
21012,273,1841,3576,-48,8,-34
21022,147,1777,3376,-56,18,-48
21032,262,1791,3530,-35,65,-43
21042,338,1904,3651,-145,130,-12
21052,94,1709,3298,-127,147,-42
21062,232,1656,3497,-64,90,-44
21072,277,1842,3728,-125,59,-34
21082,285,1825,3730,-133,105,-39
21092,143,1778,3791,-127,134,-21
21102,140,1803,3910,-101,92,-49
21112,77,1892,3632,-41,142,-84
21122,-40,1915,3662,15,130,-79
21132,57,2015,3551,-81,66,-42
21142,-69,1849,3461,-85,51,-50
21152,113,1789,3557,-93,2,-36
21163,44,1753,3322,-34,73,-53
21173,145,1609,3820,-67,40,-20
21183,127,1732,3448,-82,39,-30
21193,229,1787,3998,-26,63,-39
21203,84,1873,3615,-50,66,-45
21213,66,1773,3681,46,51,-51
21223,199,1904,3854,-36,4,-16
21233,43,1931,3611,-8,23,-44
21243,171,1791,3800,-17,48,-11
21253,-56,1732,3531,-22,65,-14
21263,13,1738,3607,33,7,-33
21273,49,1829,3742,-61,33,-26
21283,-21,1859,3724,-58,12,-46
21293,9,1772,3560,-36,10,-39
21303,61,1793,3748,-24,-8,-28
21313,60,1859,3519,-22,6,-45
21323,17,1755,3690,30,54,-52
21333,113,1873,3738,-68,-41,-18
21343,60,1829,3580,-7,8,-64
21353,167,1824,3846,-43,-10,-36
21364,37,1840,3472,-27,10,-50
21374,117,1785,3717,9,14,-52
21384,90,1824,3673,-66,15,-31
21394,55,1803,3463,-27,42,-54
21404,58,1574,3779,-93,62,-30
21414,33,1599,3587,-76,29,-43
21424,82,1692,3617,-3,117,-86
21434,-13,1743,3744,-48,123,-66
21444,104,1850,3730,-75,72,-32
21454,-15,1803,3635,-85,85,-55
21464,-35,1772,3500,-45,39,-72
21474,12,1837,3465,-14,101,-71
21484,-19,1883,3817,-141,100,-59
21494,-80,1821,3460,-144,70,-92
21504,51,1767,3900,-119,80,-87
21514,-58,1918,3912,-178,56,-83
21524,-51,1844,3790,-96,53,-117
21534,39,1789,3950,-150,74,-95
21544,-170,1742,3395,-136,143,-116
21554,-21,1521,3728,-92,148,-95
21565,-74,1578,3759,-214,118,-86
21575,-69,1618,3720,-183,110,-165
21585,96,1636,4115,-205,157,-196
21595,6,1683,3883,-204,178,-212
21605,23,1701,3820,-104,196,-261
21615,36,1746,3814,-212,174,-281
21625,-79,1726,3598,-271,202,-289
21635,-105,1708,3612,-273,187,-257
21645,-49,1320,3673,-140,200,-211
21655,-55,2001,3870,-206,2,-116
21665,-88,1824,3907,-154,64,-200
21675,-209,1545,3899,-37,9,-181
21685,33,1869,3897,61,-52,-195
21695,47,1935,4119,1,-63,-192
21705,62,1918,3732,2,-51,-129
21715,-47,1838,3628,67,4,-84
21725,-44,1781,3721,63,-20,-135
21735,-32,1939,3811,63,-60,-173
21745,-39,2133,3984,-13,-116,-159
21755,-211,2277,3589,33,-96,-211
21766,-81,2299,3809,14,-133,-242
21776,-166,2230,3451,-174,-190,-209
21786,-170,1996,3346,-113,-204,-247
21796,32,1744,3920,-151,-283,-219
21806,101,1740,3632,-112,-248,-214
21816,198,1625,3683,44,-116,-251
21826,119,1756,4040,-11,-102,-228
21836,164,1928,3701,-71,-53,-240
21846,157,1735,3861,-85,-4,-211
21856,207,1690,3757,-148,-32,-186
21866,78,1722,3676,-124,17,-202
21876,190,1664,3880,-144,3,-150
21886,150,1798,3644,-144,41,-186
21896,198,1768,3980,-171,27,-116
21906,41,1744,3666,-163,10,-87
21916,18,1730,3606,-28,32,-109
21926,35,1631,3901,-92,-52,-81
21936,9,1637,3452,-5,-42,-127
21946,95,1607,3972,48,12,-131
21956,23,1611,3692,-68,-47,-100
21967,90,1549,3591,26,-14,-137
21977,115,1453,4040,-85,15,-120
21987,38,1666,3659,-57,-3,-139
21997,8,1788,3587,49,53,-224
22007,-21,1770,3640,-46,29,-186
22017,-52,1717,3546,-80,29,-166
22027,-46,1641,3667,-50,7,-171
22037,-76,1715,3665,-13,-57,-152
22047,-81,1892,3719,4,-46,-184
22057,-71,1887,3846,-64,-62,-137
22067,-69,1700,3735,-58,-88,-109
22077,25,1615,3869,-39,-66,-101
22087,-2,1740,3814,-38,-59,-94
22097,-18,1738,3627,43,-14,-138
22107,11,1679,3923,-4,6,-129
22117,-109,1683,3650,-65,-43,-104
22127,20,1738,3825,-2,-19,-166
22137,32,1762,4035,-49,-68,-83
22147,61,1864,3882,12,-80,-73
22157,99,1809,3630,139,-33,-46
22168,57,1657,3537,177,-52,87
22178,-70,1716,3550,171,-57,133
22188,-66,1773,3941,88,-72,90
22198,50,1694,3654,81,-73,-13
22208,290,1522,3887,121,-4,-14
22218,308,1543,3894,59,-18,119
22228,-71,1674,3611,158,25,82
22238,43,1789,3962,92,26,-50
22248,163,1804,3613,-44,5,-10
22258,30,1738,3727,19,52,-22
22268,13,1692,3643,9,7,-20
22278,2,1798,3599,79,6,-49
22288,78,1816,3858,53,19,-36
22298,-52,1754,3509,126,11,-14
22308,-41,1755,3520,186,1,-10
22318,-1,1894,3775,61,-37,38
22328,17,1866,3722,63,4,50
22338,-73,1811,3704,116,42,33
22348,-43,1734,3723,131,39,-11
22358,37,1868,3803,31,38,32
22369,-193,1834,3724,30,25,31
22379,-136,1877,3766,24,-36,31
22389,-101,1930,3780,-29,-37,62
22399,-110,1835,3749,-100,-50,93
22409,-181,1601,3386,55,-17,39
22419,-2,1595,3798,50,-2,30
22429,-156,1762,3456,8,-69,26
22439,107,1877,3711,32,-1,38
22449,77,1773,3808,-65,29,141
22459,68,1662,3548,28,11,170
22469,261,1770,3727,132,82,187
22479,161,1827,3653,101,119,272
22489,273,1794,3646,82,186,362
22499,133,1664,3831,-36,215,429
22509,2,1590,3425,-51,129,350
22519,73,1548,3731,-50,144,262
22529,-53,1753,3823,-50,85,204
22539,-44,1694,3426,131,38,82
22549,6,1739,3748,168,43,55
22559,-17,1838,3655,115,8,70
22570,-7,1715,3668,151,32,68
22580,-3,1823,3787,118,-59,35
22590,87,1857,3731,146,11,-26
22600,-4,1744,3779,123,61,5
22610,6,1886,3526,158,26,4
22620,70,2016,3675,34,75,49
22630,66,1878,3639,-48,89,63
22640,140,1919,3474,15,108,39
22650,165,1839,3747,-46,139,59
22660,-4,1840,3583,-46,28,57
22670,99,2011,3715,-8,56,22
22680,-65,1758,3735,-61,50,74
22690,-117,1699,3463,99,-26,59
22700,1014,2009,3618,78,43,-143
22710,-163,1895,3609,151,7,-43
22720,29,1910,3659,186,33,-47
22730,44,1952,4053,-14,67,-1
22740,-68,1979,3548,-3,12,-37
22750,33,1844,3723,7,48,-41
22760,9,1921,3808,-64,-52,-25
22771,-64,1986,3453,58,-52,-68
22781,-46,1848,3691,13,-87,-28
22791,-182,1816,3262,43,-140,-64
22801,-96,1649,3537,91,-148,-97
22811,-160,1694,3745,22,-213,-149
22821,-172,1897,3480,78,-257,-259
22831,12,2139,4044,-84,-204,-267
22841,-55,2295,3913,-316,-169,-234
22851,-1182,1904,4008,-385,-64,-145
22861,317,1950,3952,-565,-142,-276
22871,56,1600,3583,-413,-33,-161
22881,179,1566,3847,-182,43,-146
22891,-15,1556,3739,-128,-2,-138
22901,20,1629,3449,11,-31,-151
22911,36,1694,3910,-45,-36,-79
22921,21,1700,3580,-52,-77,-38
22931,148,1720,3602,87,-13,-61
22941,160,1684,3916,28,-44,6
22951,186,1912,3749,90,-7,-20
22961,185,1800,3824,122,102,-33
22972,51,1792,3707,79,-24,20
22982,121,1879,3577,123,11,-30
22992,82,1805,3990,36,0,18
23002,67,1886,3653,85,-1,-35
23012,124,1838,3781,168,59,-64
23022,41,1702,3596,74,-11,21
23032,58,1822,3607,225,-4,-3
23042,88,1887,4047,130,33,36
23052,-30,1910,3598,189,-39,10
23062,66,1995,3768,228,54,-29
23072,-83,1936,4017,58,-19,58
23082,-125,2072,3435,201,-46,-20
23092,-17,1978,4049,100,-46,-20
23102,-94,1937,3785,-24,-82,31
23112,-30,1837,3693,125,24,-56
23122,-30,1707,3989,25,-7,-10
23132,-93,1911,3566,59,-51,-16
23142,45,2051,3857,88,25,-9
23152,-30,1956,3840,-21,-9,37
23162,-86,1903,3522,76,-20,-17
23173,30,2000,3885,-27,12,-3
23183,-87,1898,3365,4,-36,16
23193,216,1842,3913,19,47,94
23203,-34,1808,3761,-25,72,144
23213,107,1720,3526,168,67,110
23223,-1,1761,3687,38,99,173
23233,1033,2007,3757,-40,67,128
23243,6,2049,3516,56,145,48
23253,57,1819,3866,-79,126,20
23263,-83,1808,3453,-42,102,-14
23273,-65,1870,3717,41,139,-48
23283,-202,1793,3464,0,-33,-68
23293,-51,1852,3566,-49,-50,-63
23303,-83,1602,3774,-69,-53,-25
23313,-186,1637,3384,73,-179,-123
23323,-101,1700,3776,84,-209,-194
23333,-217,1853,3679,-17,-258,-212
23343,-134,2117,3778,38,-254,-245
23353,-150,2271,4099,-183,-222,-247
23363,845,2691,3861,-217,-228,-347
23373,249,2139,3713,-320,-192,-373
23383,-6,1900,3864,-389,-125,-256
23393,104,1805,3498,-261,-143,-206
23403,53,1867,3793,-157,-82,-179
23413,101,1763,3860,-195,-131,-70
23424,54,1736,3368,25,-59,-98
23434,32,1638,3799,65,-42,-103
23444,-19,1902,3349,20,-139,-128
23454,86,1891,3678,59,-88,-190
23464,180,1777,4041,-107,-186,-79
23474,92,1972,3387,74,-123,-155
23484,272,1852,4029,62,-78,-169
23494,87,1872,3441,-63,-144,-80
23504,229,1876,3595,93,-28,-126
23514,330,1757,3937,-45,-95,24
23524,300,1782,3181,121,-24,-20
23534,374,1761,3904,113,94,0
23544,416,1806,3618,-21,15,149
23554,288,1817,3291,212,114,102
23564,310,2058,3868,113,53,195
23574,39,2141,3309,67,40,207
23584,304,1944,4045,23,116,211
23594,-65,1706,3413,42,31,211
23604,213,1816,3366,387,88,76
23614,53,1768,3919,185,67,219
23624,650,2310,3283,168,3,112
23634,72,2024,3661,151,50,34
23644,-74,1803,3604,-77,-80,51
23654,-68,1765,3479,24,-48,-64
23664,-103,1647,3810,-16,-86,-89
23675,-158,1886,3347,112,-247,-151
23685,-105,1998,3773,62,-240,-114
23695,-175,1886,3717,-30,-324,-78
23705,-218,2002,3363,98,-342,-111
23715,-99,2241,3701,33,-378,-88
23725,-51,2454,3514,-120,-367,-104
23735,143,2366,3741,-263,-301,-124
23745,1348,2640,3744,-380,-203,-193
23755,422,1769,3091,-288,-209,-238
23765,383,1658,3520,-182,-131,-189
23775,305,1780,3666,-292,-128,-127
23785,381,1703,3405,-162,-103,-176
23795,358,1589,3440,-105,-66,-179
23805,380,1600,3343,-67,-85,-124
23815,511,1707,3630,-77,-12,-58
23825,319,1598,3555,-98,3,-33
23835,415,1677,3144,72,-15,-72
23845,495,1667,3756,57,38,-14
23855,323,1676,3534,69,7,20
23865,360,1743,3552,226,107,-69
23875,326,1840,3889,129,58,-12
23885,163,1888,3439,121,60,-39
23895,273,1737,3950,101,139,-25
23905,85,1666,3754,38,66,-1
23915,90,1780,3569,211,139,-93
23926,96,1792,3973,110,108,-15
23936,5,1859,3586,143,90,5
23946,55,1851,3820,231,103,-25
23956,-4,1936,3794,230,96,27
23966,5,2072,3813,262,121,43
23976,38,2047,4085,200,175,102
23986,-177,1993,3633,225,65,76
23996,-18,2082,3816,232,83,16
24006,-109,2026,4061,57,57,72
24016,-21,2029,3994,107,60,-13
24026,71,2051,4158,91,101,-34
24036,-22,2017,4007,117,76,-15
24046,50,2156,3789,171,104,-46
24056,-10,2106,4154,44,103,28
24066,-12,2147,3658,44,0,-14
24076,127,2074,3941,31,101,-29
24086,57,2052,4047,-67,40,61
24096,40,2132,3452,151,23,-59
24106,61,2135,3869,58,23,-42
24116,14,2177,3589,-32,-65,2
24126,171,2139,3793,55,4,-64
24136,36,2100,4063,-80,-41,-5
24146,70,2168,3519,75,-91,-97
24156,109,2215,4049,25,-48,-91
24166,4,2167,3697,-57,-117,-45
24177,95,2239,3666,21,-49,-130
24187,82,2161,3992,-142,-85,-23
24197,106,2019,3556,-41,-65,-6
24207,96,2111,3894,59,64,-43
24217,-30,2155,3804,-33,-88,-5
24227,-15,2274,3403,71,-65,-97
24237,29,2143,4097,-111,-105,-22
24247,-4,2180,3825,-136,-161,-43
24257,87,2220,3779,-40,-189,-160
24267,169,2190,3805,-138,-222,-109
24277,112,2185,3543,-203,-182,-84
24287,154,2170,3682,-252,-148,-96
24297,1699,2173,3675,-378,-164,32
24307,167,2242,3693,-421,24,132
24317,-7,2087,3965,-334,-61,111
24327,89,1752,3511,-212,-49,128
24337,112,1418,3458,47,-41,184
24347,155,1629,3615,205,-143,155
24357,-27,1724,3305,187,-67,116
24367,14,1515,3685,125,-276,111
24378,202,1235,3249,-47,-179,94
24388,-55,1277,3319,58,-81,-49
24398,257,1530,4379,-31,-365,46
24408,291,1945,3683,14,-235,-37
24418,133,2225,3710,184,-190,-156
24428,207,2070,3506,23,-169,-26
24438,8,2211,3229,-68,-143,73
24448,10,2037,3421,-155,-240,120
24458,46,1987,3235,-73,-249,94
24468,128,2101,3731,-48,-225,112
24478,145,1962,3697,-128,-290,160
24488,320,1643,3582,-4,-256,95
24498,387,1472,3954,53,-219,113
24508,342,1505,3706,59,-148,107
24518,445,1716,3724,61,49,56
24528,466,1670,3883,-176,63,212
24538,269,1778,3340,-281,81,206
24548,393,1664,4287,-451,-22,201
24558,281,1591,3653,-418,-66,186
24568,313,1551,3216,-38,18,37
24579,397,1477,3307,-83,47,58
24589,255,1430,2782,-102,34,83
24599,364,1362,3273,-97,50,82
24609,347,1468,3434,-173,-19,87
24619,384,1557,3500,-94,105,8
24629,455,1510,4156,-174,92,29
24639,305,1564,3745,-81,79,-6
24649,310,1480,3963,36,118,-53
24659,283,1596,4081,-59,62,-13
24669,260,1677,3732,0,161,-13
24679,286,1303,4070,-59,205,54
24689,175,1277,3460,-26,134,139
24699,287,1504,3795,64,279,196
24709,159,1536,3933,-65,254,279
24719,-19,1822,3464,43,296,139
24729,157,1842,4036,-47,342,-11
24739,107,1687,3517,-89,239,-37
24749,-11,1633,3621,142,282,-213
24759,-156,1804,3948,38,214,-267
24769,-94,1951,3563,148,149,-350
24780,-30,2009,4393,47,147,-242
24790,-126,2080,3997,53,115,-181
24800,-119,1806,3846,195,123,-171
24810,-182,1686,3934,75,19,-93
24820,-210,1605,3787,99,23,-67
24830,-143,1510,4233,71,37,1
24840,-345,1497,3968,107,-49,-11
24850,-320,1566,3744,260,-51,-82
24860,-288,1726,4090,173,-86,-79
24870,-234,1777,3697,169,-58,-165
24880,-97,1789,4119,147,-26,-210
24890,-52,1973,4255,-18,-45,-178
24900,277,1830,3522,110,25,-257
24910,32,1827,3819,-4,52,-223
24920,-128,1855,3397,-71,7,-143
24930,-12,1902,3624,-35,40,-134
24940,153,1865,4246,-215,-49,5
24950,28,1707,3563,-38,28,-14
24960,120,1582,3599,201,39,-97
24970,74,1736,3608,75,12,-30
24981,100,1866,3503,122,45,-40
24991,112,1861,4060,29,69,-32
25001,40,1793,3561,-26,43,-27
25011,177,1819,3967,-7,119,-45
25021,71,1774,3922,-136,89,41
25031,-37,1735,3434,27,130,-64
25041,-3,1766,4068,-72,57,-25
25051,-64,1791,3510,-33,45,-16
25061,-39,1763,3736,93,193,-98
25071,-90,1761,4023,-109,103,17
25081,-191,1807,3494,31,125,-60
25091,-98,1807,4277,24,90,-65
25101,-125,1985,4146,-75,29,23
25111,-169,1920,3879,77,92,-61
25121,-98,1759,3994,-29,-6,-11
25131,-94,1818,3708,-81,-41,51
25141,-83,1701,3865,-26,34,9
25151,-113,1580,3612,-3,-48,-32
25161,-13,1745,3684,54,17,-76
25171,-67,1811,4036,-97,11,10
25182,-49,1737,3827,-24,40,-25
25192,-34,1731,3975,4,60,-61
25202,-38,1752,3962,-44,9,-12
25212,-3,1832,3780,46,46,-62
25222,20,1874,4272,-59,103,-7
25232,-80,1856,3714,-54,0,15
25242,-26,1837,3736,13,83,-77
25252,-114,1730,4053,-160,-36,56
25262,-60,1755,3574,11,2,-29
25272,-7,1680,4040,34,32,-78
25282,-90,1801,3670,-34,-26,-33
25292,-16,1812,3864,84,55,-109
25302,-71,1837,4109,-59,29,-60
25312,-115,1829,3566,15,-30,-148
25322,-144,1878,4009,-14,-14,-194
25332,-58,1831,4008,-116,-112,-105
25342,-129,1832,3401,103,-51,-219
25352,-66,1753,3744,120,-90,-215
25362,-128,1794,3603,7,-126,-115
25372,-137,1853,3771,83,-51,-148
25383,-166,1797,3905,38,-34,-81
25393,-202,1874,3524,59,18,-110
25403,-188,1968,4018,15,20,-108
25413,-184,1960,3735,-73,1,-73
25423,-541,1822,3317,42,97,-140
25433,-287,2073,3937,17,-24,-238
25443,-640,1802,3633,-297,137,-93
25453,-108,1847,3838,-197,-8,-260
25463,-920,1604,4050,-410,-138,-404
25473,-1875,1426,3783,-490,-247,-839
25483,194,2143,3628,-466,-287,-693
25493,75,1704,3814,-417,-304,-722
25503,-976,1480,3251,-335,-572,-988
25513,461,1442,4002,-457,-664,-927
25523,1108,1866,3814,-714,-429,-450
25533,499,1665,3938,-671,-73,-100
25543,-141,1314,3860,-725,-28,-14
25553,-231,1360,3410,-537,-47,-178
25563,66,1562,4269,-452,-93,-377
25573,549,1674,3748,-572,77,-473
25584,235,1450,3875,-504,242,-305
25594,-250,1263,3859,-589,181,-76
25604,-598,1299,3273,-325,67,-80
25614,-242,1244,3749,-140,-107,-314
25624,105,1169,3500,-224,-54,-319
25634,136,1109,3670,-79,-74,-224
25644,273,1023,4106,-111,45,-262
25654,85,1180,3487,-109,139,-342
25664,107,1050,3930,42,149,-459
25674,197,1145,3849,-6,228,-504
25684,-93,1297,3634,97,319,-463
25694,-208,1166,4213,112,257,-458
25704,-267,1302,3585,69,236,-365
25714,-253,1098,3781,344,181,-247
25724,-189,1017,3792,411,194,-37
25734,-193,1042,3277,693,275,44
25744,-304,1288,4051,953,229,103
25754,-2539,5427,4632,970,133,-325
25764,875,295,4266,-513,-36,11
25774,-1344,1958,3567,-414,-563,-301
25785,-985,1659,3134,-119,-471,-850
25795,-1065,1456,3633,117,-754,-682
25805,-897,2117,4182,-17,-692,-631
25815,-245,1363,3698,-18,-531,-967
25825,19,1360,3841,27,-417,-986
25835,-377,2165,3436,120,-322,-959
25845,-686,1251,4036,52,-320,-881
25855,-425,1157,4078,-153,-336,-940
25865,90,1152,4021,55,-409,-988
25875,743,1483,4688,-4,-423,-660
25885,604,1053,3538,-107,-479,-516
25895,876,1388,3869,-85,-325,-404
25905,755,1527,4298,-477,75,-310
25915,322,1243,3458,-306,136,-345
25925,475,1334,3795,-103,339,-266
25935,96,1451,3566,-21,490,-181
25945,-402,1791,3523,323,539,-116
25955,-592,2144,4231,214,415,60
25965,-690,2020,3638,-33,166,274
25975,-233,1638,3903,-15,-13,552
25986,-23,1462,4155,-89,-80,791
25996,491,1112,4332,-5,-46,860
26006,-68,1569,4707,-85,49,742
26016,-124,1562,3845,-175,129,654
26026,-557,1308,3907,-9,202,482
26036,-749,1428,4260,-128,307,259
26046,-719,1592,3554,-42,270,-128
26056,-286,1770,4223,105,266,-222
26066,-277,1745,3695,-53,216,-102
26076,-529,1512,3550,50,162,-30
26086,-414,1526,4186,-76,109,109
26096,-342,1669,3901,-188,68,134
26106,-66,1690,4574,-125,49,119
26116,60,1554,4166,-199,38,164
26126,-142,1405,3391,3,24,137
26136,-197,1487,4218,81,75,186
26146,-287,1816,4105,-125,126,207
26156,-365,1807,4314,-88,122,69
26166,-206,1685,3984,-117,36,6
26176,-166,1523,3648,14,17,-36
26187,-82,1618,4168,70,37,19
26197,-346,1680,3865,16,20,-7
26207,-253,1634,3765,130,-56,-78
26217,-97,1588,4028,94,-79,-8
26227,-156,1649,3748,34,-86,3
26237,-131,1679,4107,27,-87,-16
26247,-105,1575,3860,-86,-113,-6
26257,-71,1608,3856,-41,-92,-35
26267,52,1668,4237,-40,-50,2
26277,-46,1647,3843,-151,8,131
26287,-142,1630,3783,-139,-110,168
26297,130,1694,4044,-189,-105,-65
26307,16,1572,3848,-80,-11,-83
26317,10,1389,4270,49,15,-16
26327,-191,1555,3634,27,-7,8
26337,-181,1680,3822,127,-23,-102
26347,-150,1704,4150,7,-5,-75
26357,-156,1784,3603,-38,-98,-63
26367,-55,1649,4229,-31,-89,-101
26377,-24,1506,3630,-65,-126,-106
26388,63,1520,3743,31,-100,-169
26398,-132,1688,4028,-7,-107,-55
26408,-163,1893,3486,7,-161,-113
26418,-34,1758,3978,-30,-200,-167
26428,23,1537,3794,-86,-215,-118
26438,77,1543,3454,-1,-250,-192
26448,-51,1511,3632,96,-196,-159
26458,-329,1626,3622,211,-166,-152
26468,-218,1788,3849,204,-179,-164
26478,-82,1688,3878,47,-228,-133
26488,-36,1547,3693,-127,-302,-101
26498,290,1575,3762,-360,-364,-100
26508,50,1356,3662,-240,-160,-94
26518,-13,1417,3609,-69,-220,-61
26528,134,1795,3877,-170,-241,-104
26538,89,1638,3411,-293,-244,-128
26548,206,1397,3679,-147,-190,-148
26558,176,1580,3768,-125,-166,-70
26568,95,1676,3218,-73,-237,-102
26578,355,1510,3732,-63,-164,-93
26589,302,1429,3429,-152,-145,-45
26599,213,1380,3463,-91,-89,-111
26609,282,1367,3745,-59,-73,-154
26619,302,1263,3530,-56,-71,-172
26629,298,1317,3939,-49,-13,-187
26639,13,1594,3776,-129,-101,-241
26649,4,1306,3839,-124,-119,-311
26659,36,1385,4332,-171,-104,-364
26669,181,1198,3505,-188,-184,-448
26679,191,839,3724,138,-26,-518
26689,-276,1568,3817,348,141,-596
26699,-71,1814,3901,251,156,-329
26709,243,1571,4187,178,203,-138
26719,374,1455,3685,113,103,-87
26729,462,1498,3935,168,151,-76
26739,347,1494,4185,37,184,-52
26749,276,1392,3676,105,151,-80
26759,448,1526,4212,160,236,-52
26769,166,1461,3798,199,254,-89
26779,-39,1558,3796,371,288,-22
26790,-181,1887,4116,302,246,121
26800,-301,1964,3661,197,154,172
26810,-79,1933,3993,141,80,342
26820,58,1637,3946,-58,20,660
26830,-104,1745,3792,-14,4,571
26840,-208,1738,4145,-2,53,611
26850,-370,1839,3992,-104,59,591
26860,-377,1680,4050,-168,62,548
26870,-474,1344,4144,-203,84,456
26880,-555,1168,3722,-92,149,114
26890,-46,1214,4124,-70,60,11
26900,-365,1526,3524,-27,14,-109
26910,-444,1461,2438,165,15,-211
26920,195,1674,5656,209,172,-84
26930,1913,1805,4540,374,348,-174
26940,1384,1792,4023,309,258,-183
26950,186,1754,3857,17,38,-139
26960,32,1678,3651,12,-62,-167
26970,95,1655,4012,-70,-25,-114
26980,81,1589,3700,-113,-12,-103
26991,74,1546,3943,-41,-8,-104
27001,151,1603,4015,-125,9,-63
27011,26,1649,3762,-68,35,-73
27021,-50,1669,3996,-66,35,-23
27031,-70,1696,3581,-121,25,-27
27041,-104,1551,3321,-62,-4,-56
27051,-21,1486,4102,-123,24,7
27061,102,1489,3576,-140,21,-48
27071,91,1298,3978,-44,11,-74
27081,181,1438,3819,-113,-11,-28
27091,-36,1414,3813,-45,47,-86
27101,-47,1446,3950,-70,-2,-49
27111,-20,1533,3524,-57,-19,-70
27121,78,1453,3825,22,-9,-91
27131,103,1449,3786,-12,24,-40
27141,-53,1529,3326,65,25,-89
27151,-172,1637,3816,41,11,-34
27161,-91,1790,3949,-85,30,-44
27171,-53,1689,4043,-16,41,-103
27181,-6,1487,4134,9,35,-56
27192,-67,1550,3545,63,9,-93
27202,-157,1650,4081,34,7,-75
27212,-140,1813,3919,-50,2,-59
27222,-129,1586,3799,45,-10,-113
27232,3,1470,3843,29,-55,-51
27242,-62,1553,3624,25,-25,-53
27252,-124,1704,4229,12,-14,-31
27262,-64,1647,3851,-43,-31,-39
27272,0,1393,3409,57,-67,-72
27283,-82,1571,4141,47,-40,18
27293,-68,1925,3862,-27,-15,-63
27303,-172,1530,3588,105,-22,-125
27313,-108,1597,3970,115,-71,-18
27323,-54,1838,3844,38,-35,-80
27333,-85,1587,3921,43,-32,-74
27343,-72,1480,3647,57,-57,-24
27353,-54,1663,3830,62,-54,-44
27364,-47,1601,4114,-52,-4,-7
27374,-55,1562,3665,-5,-21,-51
27384,-86,1508,3807,73,-35,-50
27394,-83,1578,3830,-35,-11,-3
27404,-114,1684,3820,-62,-8,-38
27414,-65,1459,4018,-88,-1,3
27424,-46,1605,3905,-62,-11,-10
27434,-41,1603,3655,-42,-5,-56
27445,-69,1537,4065,-49,7,-6
27455,-26,1656,3538,-27,16,-50
27465,-114,1441,3797,56,4,-54
27475,-5,1655,3829,-42,-26,-23
27485,-68,1515,3801,-5,11,-65
27495,-38,1413,3927,-20,-11,-9
27505,4,1542,3645,-9,-25,-38
27515,-12,1528,3988,-14,-2,-29
27525,5,1642,4073,-1,18,-45
27536,-6,1575,3711,95,25,-111
27546,-86,1493,3936,125,2,-65
27556,-104,1746,3859,58,20,-73
27566,-147,1670,3932,47,23,-103
27576,-105,1560,4046,20,17,-59
27586,-92,1666,3523,11,-17,-89
27596,-151,1607,3916,-34,-19,-41
27606,-55,1714,3981,-113,-9,-9
27617,-44,1580,3709,-28,-1,-85
27627,-16,1514,3986,-49,-37,-31
27637,5,1640,3900,-97,0,-46
27647,-47,1589,4067,-69,21,-60
27657,-129,1469,3605,-47,8,-46
27667,-216,1670,3740,-19,-30,-49
27677,-167,1779,4063,-112,-24,-47
27687,-191,1651,3694,-91,-20,-87
27698,-200,1534,3775,13,-65,-75
27708,-82,1618,3925,-89,-62,-47
27718,-128,1651,3735,-81,-49,-107
27728,-135,1492,3971,-80,-69,-95
27738,-41,1493,3787,-104,-75,-79
27748,-73,1548,3654,-60,-87,-105
27758,-49,1519,4023,-91,-71,-71
27768,-4,1559,3551,-94,-68,-107
27778,-112,1435,3594,-12,-71,-125
27789,-36,1679,3880,-98,-93,-81
27799,-24,1604,3682,-148,-49,-144
27809,19,1435,3900,-113,-58,-120
27819,50,1484,3716,-109,-65,-103
27829,-13,1493,3543,-101,-64,-124
27839,-8,1542,3888,-106,-46,-89
27849,41,1574,3872,-137,-18,-132
27859,39,1395,3823,-113,-20,-160
27870,59,1392,3871,-99,-10,-135
27880,30,1458,3880,-101,33,-139
27890,-32,1376,3992,-134,49,-127
27900,-48,1436,3667,-130,12,-135
27910,-56,1436,3787,-113,12,-129
27920,-35,1460,4003,-158,57,-102
27930,-44,1484,3938,-147,48,-128
27940,-36,1375,3930,-157,20,-87
27951,-95,1470,3747,-141,5,-57
27961,-120,1532,4162,-134,46,-76
27971,-101,1552,4181,-130,37,-94
27981,-102,1547,3904,-30,-9,-165
27991,-69,1548,3974,63,-11,-166
28001,-86,1685,4104,135,38,-142
28011,-257,1629,3770,163,4,-164
28021,-277,1541,3990,86,-40,-121
28031,-475,1710,4232,40,-78,-136
28042,-549,1499,4196,-7,-135,-340
28052,-190,1374,4045,-36,-232,-316
28062,-398,1685,3877,59,-284,-299
28072,-463,1813,4303,93,-283,-384
28082,-493,1942,4183,42,-340,-566
28092,16,1307,3955,56,-345,-601
28102,90,1887,3879,129,-294,-501
28112,-115,1878,3806,58,-211,-618
28123,126,1521,4023,-133,-180,-611
28133,246,1471,3869,-243,-156,-420
28143,141,1315,3606,-235,-163,-332
28153,299,1392,4019,-257,-129,-188
28163,288,1216,3989,-268,-101,-102
28173,245,1180,3997,-180,-57,-23
28183,250,1212,4003,-101,0,22
28193,224,1142,3947,43,64,48
28204,176,1141,4077,155,124,107
28213,74,1320,4029,215,144,134
28223,-77,1402,3847,240,115,192
28233,-145,1539,4097,175,98,299
28243,-135,1595,3972,58,51,362
28253,-235,1349,3806,-27,22,535
28263,15,1408,3975,-73,0,540
28273,-77,1375,3948,-90,19,560
28283,-101,1253,4091,-110,7,559
28293,-182,1375,3843,-127,-38,501
28303,-307,1368,3907,-82,-26,415
28313,-149,1399,4144,-28,29,315
28323,-115,1350,3751,43,46,196
28333,-602,1243,3780,50,-39,185
28343,-1399,1320,2832,11,-172,167
28353,1282,1462,5621,137,378,149
28363,2155,1323,4150,125,370,84
28373,64,1379,2788,19,37,28
28383,-85,1395,3961,-24,85,27
28393,9,1534,3975,5,73,18
28403,-69,1476,3867,4,52,-26
28413,-1,1523,4231,-10,29,-20
28423,30,1583,3922,3,33,-73
28433,-73,1367,3958,-32,42,-56
28443,-116,1437,3880,-72,7,-15
28453,-154,1570,3939,-128,3,-62
28463,-143,1495,3994,-152,6,-65
28473,-75,1424,3839,-91,-7,-71
28483,-52,1281,3836,-79,12,-46
28493,-27,1405,3832,-82,14,-34
28503,-64,1430,3848,-84,38,-51
28513,-50,1281,3949,-105,43,-41
28523,-7,1340,3985,-104,37,-44
28533,-19,1195,3722,-117,34,-68
28543,-58,1243,3983,-62,41,-39
28553,-57,1345,3984,-95,58,-30
28563,-125,1224,3878,-87,57,-54
28573,-69,1353,4135,-47,29,-60
28583,-99,1371,4026,-64,58,-102
28593,-149,1157,3956,-66,57,-105
28603,-148,1290,3984,-10,33,-91
28613,-272,1406,3907,-29,41,-134
28623,-223,1399,4001,10,20,-151
28633,-183,1361,3815,60,13,-173
28643,-172,1263,3986,91,9,-157
28653,-137,1373,3871,111,8,-171
28663,-121,1393,4119,126,22,-183
28673,-82,1320,4017,79,22,-182
28683,-89,1307,3848,103,6,-212
28693,-119,1334,3925,108,4,-198
28703,-48,1461,4176,87,0,-172
28712,-82,1330,3760,94,17,-199
28722,-88,1283,3978,125,-10,-175
28732,-57,1454,4046,106,-1,-168
28742,-62,1422,3803,81,18,-165
28752,-147,1313,3974,84,46,-112
28762,4,1535,3911,5,5,-142
28772,-97,1529,3837,-22,42,-149
28782,-65,1463,3808,28,-12,-84
28792,-184,1493,3677,71,20,-89
28802,-177,1615,3921,48,-12,-103
28812,-72,1732,3718,20,-41,-73
28822,-133,1661,3960,-62,-31,107
28832,-216,1396,3822,-89,-50,31
28842,-204,1355,3638,-12,-66,0
28852,-46,1465,4179,-15,-77,17
28862,-43,1519,3908,-73,-64,-13
28872,-84,1322,3820,-7,-46,-15
28882,-182,1360,3882,30,-47,-40
28892,-214,1486,3681,67,-37,-91
28902,-209,1406,3762,3,-69,-56
28912,-287,1484,3863,-39,-100,-138
28922,-11,1443,3421,-38,-136,-149
28932,-119,1353,3977,-38,-121,-106
28942,39,1420,3797,-114,-134,-148
28952,302,1363,3778,-57,-98,-60
28962,50,1320,3826,-54,-45,-23
28972,33,1382,3877,8,9,-27
28982,27,1374,3969,-4,54,3
28992,52,1227,3891,39,41,32
29002,-14,1340,3522,3,48,-15
29012,-130,2007,4195,-410,-274,-97
29022,32,1392,3758,-329,-11,-40
29032,745,1279,3970,-460,-157,-341
29042,-465,1291,3622,-432,141,-77
29052,-228,1220,4150,-332,63,-117
29062,-213,1219,3944,-484,-34,-135
29072,-53,1193,3769,-394,-20,-154
29082,69,992,3925,-262,23,-100
29092,-137,986,4167,-144,122,12
29102,-265,1242,4101,-77,84,-56
29112,-393,1490,4134,-137,84,-135
29122,-403,1492,4226,-180,65,-116
29132,-378,1329,4358,-227,55,-100
29142,-288,1290,4007,-310,1,-143
29152,-126,1255,4126,-285,0,-180
29162,-11,1183,4117,-285,47,-148
29172,-55,1090,4094,-241,48,-140
29182,-201,1154,3784,-267,32,-151
29192,-220,1217,4144,-182,48,-125
29202,-24,1177,4353,-133,58,-109
29212,38,1183,3944,-183,25,-149
29222,-6,1140,4124,-143,31,-134
29232,-212,1056,3696,-163,9,-68
29242,-282,1073,3884,-72,0,-107
29252,-1,1141,3994,-5,-62,-94
29262,-51,1162,3555,-2,-42,-107
29272,-222,1131,3873,-2,-39,-68
29282,-269,1152,3744,23,-51,-14
29292,-322,1150,3884,35,-60,-48
29302,-258,1217,3827,26,-105,-26
29312,-315,1270,3609,47,-107,-28
29322,-257,1250,3979,35,-86,-19
29332,-251,1264,3926,-43,-96,-6
29342,-312,1271,3627,-46,-103,-70
29352,-278,1129,3963,-66,-118,-22
29362,-155,1076,4017,-106,-111,3
29372,-111,1005,3708,-144,-141,-57
29382,-101,927,3769,-116,-131,-29
29392,-143,912,3707,-160,-131,15
29403,-94,909,3879,-72,-110,-19
29413,4,907,3681,-40,-147,-3
29423,-103,960,3594,-13,-117,-3
29433,-38,1046,3880,16,-124,21
29443,110,1108,3825,-28,-97,14
29453,83,1105,3645,-69,-96,-2
29463,80,1072,3613,-44,-92,14
29473,47,1049,3667,-45,-57,0
29483,154,1065,4043,19,-50,-18
29493,195,1124,3705,3,-56,-64
29503,71,1089,3819,-2,-12,-89
29513,56,1025,4118,-59,5,-60
29523,132,996,3820,-97,10,-135
29533,154,863,4026,-84,20,-155
29543,47,775,3774,-80,7,-111
29553,-79,809,3731,6,36,-166
29563,-19,859,4379,45,41,-133
29573,-4,1092,3861,29,11,-165
29583,-29,1245,4175,110,36,-208
29593,-57,1273,3955,33,17,-132
29604,-238,1280,4014,43,45,-158
29614,-211,1280,4207,-27,3,-169
29624,-130,1342,4069,-29,-25,-172
29634,29,1289,4210,63,-22,-184
29644,3,1240,4166,19,-12,-141
29654,-264,1327,3867,-1,-19,-145
29664,-363,1364,4271,27,-27,-126
29674,-99,1450,4548,6,-72,-115
29684,76,1538,3990,-49,-114,-197
29694,72,1334,3923,-35,-105,-174
29704,-239,1202,3657,-87,-104,-51
29714,-362,1121,3940,-39,-91,-65
29724,-153,1101,4297,-28,-157,-87
29734,74,1246,3874,13,-212,-134
29744,209,1213,4061,43,-178,-149
29754,73,1208,3836,23,-149,-9
29764,-213,1173,3842,6,-104,5
29774,-256,1159,4018,6,-143,-22
29784,-221,1264,3669,-24,-207,-27
29794,-46,1224,4025,68,-203,-73
29805,104,1174,4051,68,-224,-59
29815,62,1215,3954,-9,-184,-68
29825,55,1148,4076,0,-158,-60
29835,99,1172,4080,-40,-135,-35
29845,71,1162,4081,-114,-110,-43
29855,35,1075,4000,-152,-134,-42
29865,13,955,3910,-149,-115,-25
29875,78,784,4129,-19,-82,-10
29885,88,818,4079,-8,-67,-22
29895,110,910,4073,56,-35,-50
29905,98,1023,4044,70,-35,-39
29915,124,1100,4211,74,1,-32
29925,109,1140,4252,33,-15,-32
29935,21,1146,3925,29,-70,-62
29945,14,1025,3831,63,-69,-90
29955,52,894,4129,65,-33,-41
29965,-66,866,4366,-24,18,-2
29975,-38,934,4409,33,12,-60
29985,191,1065,4451,98,-6,-132
29995,197,1069,3993,4,-19,-103
30006,36,885,3951,-39,8,-14
30016,-267,631,3813,-85,-4,77
30026,-341,575,3763,54,-18,73
30036,-47,650,4354,277,-24,64
30046,-48,948,4193,282,-90,96
30056,-86,1159,4024,271,-95,72
30066,-62,1117,4250,274,-65,130
30076,-159,1275,4108,163,-68,216
30086,-170,1291,4054,225,-115,205
30096,-79,1201,3900,219,-186,282
30106,-83,1182,3793,334,-177,342
30116,-22,994,4145,539,-160,392
30126,-18,1332,4215,570,-162,379
30136,154,1715,4556,671,-148,313
30146,258,2041,4651,540,-142,310
30156,307,2239,4474,382,-125,236
30166,377,2066,4390,57,-71,206
30176,205,1919,3987,-348,-47,157
30186,196,1620,3992,-498,-2,31
30196,107,1164,3840,-559,18,1
30207,17,881,3601,-487,20,-32
30217,43,559,3606,-241,10,-57
30227,126,317,3918,-57,26,-46
30237,136,420,4168,-41,27,-136
30247,137,712,4176,-62,16,-180
30257,76,828,4107,-21,2,-102
30267,34,702,4499,59,52,-32
30277,-106,836,4563,46,65,7
30287,-307,1160,4399,130,96,-39
30297,-263,1406,4669,176,92,-62
30307,-346,1764,4366,17,60,-32
30317,-472,1829,4045,-84,22,-63
30327,-413,1524,3982,-224,-26,-17
30337,-305,1368,3789,-313,-19,10
30347,-128,1251,3800,-289,17,-37
30357,-122,1248,3615,-334,28,14
30367,-235,1230,3600,-326,17,34
30377,-248,1180,3815,-265,0,44
30387,-49,1295,3906,-234,-57,6
30397,89,1327,4123,-213,-66,2
30407,57,1265,3970,-217,-68,57
30417,-131,1273,3628,-250,-59,36
30427,-168,1196,3725,-239,-45,13
30437,-212,1215,3525,-357,-74,51
30447,-160,1144,3487,-321,-115,-3
30458,79,992,3547,-309,-177,-22
30468,185,954,3281,-360,-200,-34
30478,213,886,3446,-358,-191,-19
30488,147,855,3345,-401,-173,40
30498,112,824,3422,-330,-166,7
30508,246,764,3533,-252,-162,-30
30518,411,784,3533,-277,-141,-44
30528,453,830,3373,-305,-133,-58
30538,471,853,3481,-258,-103,-60
30548,470,884,3473,-309,-114,-60
30558,411,889,3534,-356,-120,-72
30568,350,848,3634,-360,-117,-76
30578,298,875,3705,-364,-96,-96
30588,237,915,3826,-374,-88,-152
30598,216,1006,3728,-431,-86,-195
30608,230,976,3741,-407,-77,-215
30618,201,917,3715,-487,-116,-216
30628,75,815,3465,-584,-181,-238
30638,61,604,3629,-498,-238,-212
30648,20,525,3664,-605,-285,-189
30658,-38,531,3797,-583,-304,-183
30668,94,625,4126,-585,-342,-226
30678,289,720,4107,-676,-357,-272
30688,389,510,4132,-674,-343,-222
30698,312,-79,4481,-475,-243,-47
30709,-17,-663,4640,-238,-153,137
30719,-267,-872,4676,-28,-178,154
30729,-148,-585,4532,167,-176,46
30739,37,-120,4630,258,-142,3
30749,-55,270,4451,171,-140,49
30759,-206,554,4081,94,-168,73
30769,-155,721,4007,44,-180,59
30779,1,858,3700,24,-196,32
30789,153,977,3597,-28,-221,10
30799,190,1021,3452,-111,-269,25
30809,240,1108,3104,-139,-260,28
30819,343,1135,3705,-93,-230,14
30829,344,1203,3452,-268,-249,-19
30839,523,1102,3402,-278,-234,-38
30849,739,698,3956,-296,-217,4
30859,716,215,3723,-396,-217,44
30869,726,-355,3936,-219,-170,64
30879,809,-626,4036,-31,-141,25
30889,779,-511,4064,2,-65,9
30899,641,-250,4080,98,1,27
30909,416,175,4101,-91,48,25
30919,467,335,4142,-111,124,-53
30929,573,483,4076,-199,177,-113
30939,453,598,3749,-330,129,-83
30949,200,592,3761,-326,116,-33
30960,166,602,3917,-153,141,-86
30970,440,855,4067,-166,189,-158
30980,678,1095,4177,-111,197,-195
30990,605,1159,3986,-300,146,-168
31000,472,993,4107,-319,128,-118
31010,455,843,3847,-321,82,-148
31020,550,666,3966,-287,98,-152
31030,564,306,4077,-295,67,-104
31040,489,240,3833,-310,42,-99
31050,706,303,4504,-61,134,-130
31060,617,471,4739,-56,117,-93
31070,504,696,4738,-71,125,-68
31080,611,728,5278,27,143,-92
31090,356,738,4906,-147,99,-84
31100,135,561,4864,-221,65,-48
31110,110,316,4336,-209,46,-92
31120,197,138,4090,-246,41,-93
31130,308,-31,4265,-227,51,-35
31140,456,140,4220,-51,137,-45
31150,514,419,4686,1,177,-13
31160,316,624,4496,-29,169,6
31170,170,625,4260,-85,176,28
31180,198,419,4585,-84,259,43
31190,121,433,4421,-63,309,11
31200,-28,659,4103,-175,295,-31
31211,24,569,4234,-317,325,-60
31221,134,176,4354,-328,405,-97
31231,138,-146,4730,-268,408,-67
31241,80,-65,4325,-271,325,-72
31251,365,37,4788,-251,404,-125
31261,453,-22,5028,-214,438,-125
31271,59,-23,4640,-385,364,-55
31281,5,91,4623,-478,374,-52
31291,63,386,4475,-307,484,-169
31301,-97,684,4311,-440,481,-146
31311,-129,786,3891,-404,476,-122
31321,9,536,4271,-385,567,-113
31331,-53,200,4325,-473,647,-47
31341,-299,60,4337,-495,592,2
31351,-156,7,4284,-561,689,-13
31361,50,108,4551,-676,807,33
31371,-19,396,4541,-1092,958,187
31381,-299,693,4188,-1120,910,267
31391,-544,761,3569,-990,842,297
31401,-681,224,3146,-610,720,322
31412,-631,-616,2754,-663,635,353
31422,-470,-1364,2914,-800,560,359
31432,-104,-1602,2931,-579,487,275
31442,10,-1431,3379,-412,412,248
31452,-252,-775,3328,-371,394,303
31462,-535,-409,4021,-175,404,438
31472,-795,-309,4230,-189,309,589
31482,-941,-261,4154,-82,228,505
31492,-755,-601,4374,31,155,369
31502,-603,-447,4044,-324,164,370
31512,-419,-23,4351,-88,147,253
31522,-56,277,4667,-151,124,313
31532,-56,825,4623,134,-2,371
31542,114,764,5313,364,-47,292
31552,342,608,5441,281,-116,279
31562,235,609,4972,455,-274,192
31572,369,468,4453,437,-364,198
31582,608,688,4327,568,-357,125
31592,822,734,4454,731,-325,51
31602,981,798,4396,938,-315,105
31613,885,951,4394,1164,-377,94
31623,741,1016,4095,1158,-442,106
31633,569,907,4157,1201,-525,133
31643,422,600,4346,1135,-540,205
31653,165,574,4588,1266,-597,205
31663,0,778,4767,1343,-585,80
31673,-87,1060,5124,1325,-533,-45
31683,-159,1225,5018,1087,-524,-100
31693,-19,1259,4540,1004,-574,-165
31703,357,903,4610,1120,-531,-237
31713,201,386,4184,894,-602,-189
31723,145,287,3809,815,-603,-210
31733,342,438,4208,886,-499,-281
31743,115,815,4092,687,-507,-288
31753,51,910,4097,480,-522,-324
31763,264,636,4153,399,-489,-328
31773,192,523,3703,376,-478,-363
31783,309,315,3488,531,-396,-441
31793,398,162,3635,539,-315,-431
31803,231,261,3685,361,-270,-359
31814,122,511,3754,377,-290,-362
31824,189,819,4013,358,-329,-414
31834,382,870,4307,254,-312,-394
31844,451,847,4337,57,-365,-349
31854,481,937,4188,56,-381,-369
31864,500,936,4353,115,-369,-404
31874,444,939,3917,3,-368,-376
31884,417,610,3919,-62,-343,-309
31894,250,261,3473,-289,-379,-189
31904,142,244,3110,-116,-328,-186
31914,309,214,3658,91,-194,-181
31924,348,575,3585,114,-128,-150
31934,455,896,3895,399,-61,-162
31944,496,945,4440,275,-56,-82
31954,229,882,4248,56,-119,-31
31964,175,497,4420,77,-117,-31
31974,71,409,4272,-80,-130,-64
31984,58,618,4146,-90,-72,-119
31994,99,672,4545,-130,3,-137
32004,-8,830,4295,-164,2,-192
32015,67,845,4187,-54,4,-199
32025,203,835,4161,18,37,-174
32035,193,794,4191,70,71,-149
32045,71,685,4157,57,41,-93
32055,-3,832,4007,100,25,-101
32065,4,933,4324,259,79,-153
32075,-58,972,4301,300,82,-125
32085,-102,1030,4286,400,29,-51
32095,-74,1001,4213,549,42,-7
32105,-4,991,4224,642,123,-36
32115,-5,951,4237,572,171,-6
32125,-78,815,4135,353,123,20
32135,-149,738,3877,175,67,-9
32145,-122,444,4063,33,76,37
32155,-116,264,3893,-147,55,39
32165,-126,316,3827,-103,27,28
32175,-100,440,3973,5,20,19
32185,-57,619,3955,72,46,20
32195,-101,572,4024,35,15,108
32205,-62,473,3719,-168,-71,88
32216,21,437,3647,-210,-87,115
32226,-63,511,3742,-273,-38,120
32236,-145,581,3585,-318,-24,49
32246,-228,524,3571,-228,8,62
32256,-198,381,3733,-128,47,9
32266,-140,390,3746,-4,104,15
32276,-208,287,3945,169,114,99
32286,-174,353,3906,188,59,42
32296,-167,473,3998,348,97,140
32306,-165,593,4271,357,72,131
32316,-64,821,4277,343,68,125
32326,-95,914,4417,440,63,240
32336,-70,891,4447,416,94,183
32346,-132,906,4347,388,77,255
32356,-209,727,4365,324,-35,246
32366,-17,436,4174,281,-110,145
32376,159,194,4306,410,-72,183
32386,156,406,4203,575,33,136
32396,-56,798,4091,862,122,179
32406,-120,1084,4090,987,158,137
32416,-141,1344,4240,970,194,136
32426,-83,1427,4415,823,166,157
32436,27,1422,4572,602,124,187
32446,46,1317,4485,404,139,211
32456,-99,1016,4461,341,143,221
32466,-87,623,4336,341,105,82
32476,-17,401,4052,487,103,72
32486,60,333,3973,708,101,23
32496,143,604,4142,929,251,-17
32506,-238,1105,4292,943,328,174
32516,-517,1279,4099,858,263,118
32526,-508,1112,4144,702,183,43
32536,-490,940,3876,534,110,10
32546,-204,789,3742,598,96,-143
32557,-67,916,3882,709,133,-188
32567,395,1304,4058,697,-12,-933
32577,442,1795,3882,1015,371,-422
32587,-724,2142,4167,1190,596,176
32597,-1172,2103,4392,862,428,40
32607,-889,1945,4056,474,182,-135
32617,-350,1625,4069,385,151,-214
32627,-92,1309,4032,327,293,-227
32637,-277,1388,4213,108,341,-22
32647,-721,1476,4060,33,320,129
32657,-812,1235,4091,135,270,112
32667,-660,1010,4215,227,271,111
32677,-570,1125,3850,296,161,140
32687,-511,1280,3702,507,151,215
32697,-655,1548,3880,503,125,252
32707,-822,1839,3897,365,60,249
32717,-830,1830,3786,256,-44,256
32727,-784,1667,3707,182,-141,222
32737,-587,1592,3322,199,-148,151
32747,-476,1419,3359,345,-114,111
32757,-447,1371,3494,361,-68,104
32767,-463,1505,3613,328,-49,124
32777,-500,1626,3675,295,-6,121
32787,-559,1598,3738,243,11,94
32797,-538,1583,3697,186,-19,106
32807,-467,1552,3747,206,2,153
32817,-455,1629,3885,201,46,173
32827,-462,1710,3776,227,102,149
32837,-455,1642,3962,340,97,143
32847,-423,1635,4155,379,99,141
32857,-413,1810,4527,372,62,171
32867,-418,1945,4718,315,34,194
32877,-458,2034,4753,256,-28,173
32888,-438,2037,4706,278,-49,129
32898,-382,2074,4671,281,-78,105
32908,-437,2110,4556,250,-101,88
32918,-498,2015,4316,247,-129,104
32928,-505,1930,4132,260,-131,127
32938,-530,2032,4030,242,-135,142
32948,-578,2105,3772,223,-156,176
32958,-631,2027,3681,243,-187,222
32968,-655,2047,3765,239,-226,243
32978,-627,2197,3748,258,-305,239
32988,-554,2122,3633,307,-336,202
32998,-405,2046,3627,267,-398,183
33008,-387,1995,3509,235,-374,182
33018,-355,2016,3622,197,-368,204
33028,-450,2150,3425,117,-352,225
33038,-510,2021,3395,96,-370,235
33048,-501,1883,3432,51,-413,251
33058,-407,1848,3374,75,-421,267
33068,-303,1802,3464,134,-399,261
33078,-225,1821,3476,129,-364,273
33088,-196,1818,3407,141,-350,266
33098,-216,1772,3520,109,-332,244
33108,-202,1780,3479,53,-320,229
33118,-149,1793,3424,40,-291,204
33128,-83,1717,3476,32,-255,176
33138,-85,1664,3366,15,-239,164
33148,-102,1585,3245,34,-222,167
33158,-103,1511,3086,90,-190,190
33168,-36,1553,3308,130,-156,210
33178,-1,1706,3322,105,-121,231
33188,-4,1737,3241,146,-121,232
33198,31,1757,3331,168,-111,230
33208,70,1888,3393,202,-82,238
33219,150,1931,3697,205,-82,223
33229,191,2015,3773,152,-74,189
33239,192,1995,3733,132,-87,161
33249,152,1941,3858,83,-118,131
33259,107,1996,3770,-46,-146,112
33269,74,1961,3769,-85,-165,92
33279,82,1889,3923,-130,-169,61
33289,115,1779,3769,-122,-153,46
33299,149,1653,3795,-35,-136,47
33309,165,1669,3679,29,-108,69
33319,98,1756,3586,134,-75,102
33329,64,1894,3765,179,-49,107
33339,53,2069,3780,148,-57,111
33349,20,2152,3686,97,-88,95
33359,18,2179,3515,78,-111,70
33369,61,2161,3576,90,-119,69
33379,75,2217,3696,15,-131,79
33390,70,2202,3541,-19,-158,92
33400,128,2081,3749,26,-184,91
33410,189,2170,3832,-15,-193,83
33420,168,2284,3702,-16,-199,100
33430,143,2284,3829,8,-229,75
33440,231,2300,3677,-9,-226,44
33450,271,2271,3664,-17,-217,25
33460,269,2235,3643,-64,-211,20
33470,208,2152,3357,-69,-221,56
33480,228,2079,3406,36,-236,60
33490,359,2087,3486,67,-216,74
33500,413,2055,3407,93,-209,115
33510,440,1937,3517,112,-211,102
33520,417,1862,3342,89,-218,88
33530,391,1839,3389,109,-251,106
33540,403,1828,3463,121,-242,114
33550,444,1846,3378,127,-244,129
33561,473,1891,3613,124,-257,143
33571,535,1923,3503,127,-255,184
33581,523,1865,3578,213,-249,189
33591,525,1898,3535,253,-220,163
33601,480,2043,3409,308,-191,165
33611,484,2167,3671,298,-176,134
33621,624,1692,4210,-1052,-372,-300
33631,985,3564,1327,124,-96,-209
33641,-461,1332,4284,615,-18,627
33651,-1174,2166,784,-330,1299,66
33661,1286,3464,4290,571,-1970,165
33671,910,3322,4647,-562,-574,476
33681,-388,1981,3419,-749,-1102,674
33691,-102,1223,3796,-414,-633,320
33701,366,2446,4206,-445,-491,42
33711,1740,1956,4130,-541,-456,501
33722,569,1185,3586,-577,-286,211
33732,583,1759,3449,-93,-53,-331
33742,855,1948,3893,-124,80,-335
33752,587,2070,3639,-304,63,-69
33762,390,2223,3616,-358,-70,52
33772,572,2084,4026,-371,-170,72
33782,719,1438,3820,-292,-208,25
33792,1402,392,4031,126,23,-516
33802,2287,-193,4301,760,358,-1482
33812,1435,728,4666,1257,655,-1321
33822,-302,1757,5045,1052,626,-450
33832,209,2366,5012,792,-100,-232
33842,1218,2326,5318,508,-94,-682
33852,502,2062,4892,-94,-184,-628
33862,-294,2165,4208,-28,-417,-888
33872,-84,1899,4223,-250,-591,-1208
33882,150,1506,3823,-1029,-498,-602
33893,-70,-4382,2527,-1989,-625,-714
33903,-413,598,1928,649,-590,-470
33913,493,1036,3381,1043,-1168,-229
33923,1822,1741,2845,442,-1030,130
33933,1942,2669,2660,45,-359,392
33943,1725,2854,2865,-17,75,952
33953,501,2622,3053,-258,292,1156
33963,-24,2577,3017,-572,325,1129
33973,1180,2307,3024,-673,355,991
33983,64,2130,3109,-502,512,945
33993,194,2280,2761,-832,726,1185
34003,56,2499,3025,-986,726,1287
34013,-648,2864,3324,-946,360,1273
34023,-354,2896,3479,-1021,-101,1147
34033,745,2169,3568,-1072,-217,1211
34043,947,1327,3338,-813,-45,1188
34053,582,1456,3500,-281,107,1119
34064,149,1499,3819,-74,12,1319
34074,462,1308,3794,11,-44,1486
34084,694,1107,3641,170,-25,1377
34094,575,1062,3664,264,50,1165
34104,385,1237,3626,290,123,1051
34114,-43,1727,3512,423,-51,1301
34124,133,2621,3583,534,-453,1869
34134,731,3107,3455,538,-788,2402
34144,1176,2803,3543,623,-904,2511
34154,1557,2257,3452,552,-924,2340
34164,1601,2196,3438,375,-727,1847
34174,1524,2415,3455,72,-562,1335
34184,1405,2572,3414,-349,-438,1169
34194,1380,2257,3464,-604,-322,1020
34204,1405,1770,3558,-698,-158,687
34214,1405,1670,3706,-737,-25,431
34225,1613,1715,3844,-805,91,193
34235,1780,1728,4040,-885,193,-88
34245,1008,1452,4032,-834,232,-170
34255,557,711,3661,-520,71,553
34265,912,-106,3633,-76,-26,610
34275,1043,-57,3599,376,-25,592
34285,1396,1726,3460,946,-233,396
34295,1687,1941,3607,1384,-269,75
34305,1654,1682,3829,1460,-305,-106
34315,1741,1461,4087,1129,-358,75
34325,2044,2129,3985,746,-362,353
34335,1731,2224,3907,397,-215,426
34345,1632,1815,3888,-32,-67,440
34355,1433,1686,3835,-282,66,350
34365,1550,1777,3864,-346,142,253
34375,1102,1499,3825,-312,178,304
34385,1519,1369,3799,-308,305,466
34395,1450,1558,3797,-327,447,292
34405,1485,1517,4026,-532,597,256
34415,1360,1205,3862,-648,672,88
34426,1352,1320,3889,-697,576,-24
34436,1522,1385,3913,-758,573,-230
34446,1617,1502,3960,-892,679,-499
34456,1509,1804,3950,-953,841,-689
34466,1429,1754,3991,-1083,1082,-719
34476,1086,1731,3870,-1243,1150,-573
34486,443,1551,3466,-1304,1104,-402
34496,354,1343,3329,-1047,637,-90
34506,282,1268,3212,-759,91,184
34516,805,1021,3509,-452,-293,36
34526,1190,935,3659,-262,-303,-117
34536,1194,1117,3720,-146,-230,-174
34546,1384,1235,3944,-115,-117,-142
34556,1431,1184,4083,-166,13,-142
34566,1313,1120,4095,-212,137,-169
34576,1050,1294,3938,-84,177,-292
34586,1204,1171,4114,-43,173,-389
34596,1236,1014,4080,-198,190,-354
34606,1135,948,3932,-245,250,-327
34616,1102,1022,3810,-164,265,-265
34627,1039,1145,3818,-66,217,-134
34637,1075,1202,3891,-83,200,-33
34647,1142,1170,3904,-134,219,64
34657,953,1085,3938,-158,229,121
34667,1007,1042,3989,-148,212,215
34677,959,1054,4027,-149,215,275
34687,879,1132,4077,-163,207,277
34697,826,1158,4082,-143,172,259
34707,888,1134,4085,-120,165,226
34717,846,1228,4117,-119,77,227
34727,894,1256,4163,-146,52,225
34737,942,1188,4090,-169,36,209
34747,907,1098,4089,-103,27,140
34757,941,995,4101,-63,37,89
34767,972,1005,4085,-7,37,112
34777,903,1120,4038,74,2,133
34787,892,1169,4112,86,-31,140
34797,905,1173,4116,42,-25,120
34807,907,1180,4074,7,-1,80
34817,914,1112,4029,16,-17,62
34828,925,1022,4017,67,-50,41
34838,951,1017,4050,110,-65,40
34848,965,1107,4056,147,-80,49
34858,976,1120,4073,194,-133,81
34868,1009,1170,4166,197,-156,109
34878,984,1229,4176,176,-158,110
34888,998,1210,4232,108,-124,120
34898,887,1042,4215,-9,-84,50
34908,918,899,4080,-15,-114,27
34918,938,923,4014,109,-180,-2
34928,962,1101,4059,179,-214,-26
34938,976,1244,4038,144,-188,-13
34948,987,1333,4026,108,-153,-16
34958,979,1273,4039,95,-154,-51
34968,971,1152,3990,61,-161,-31
34978,971,1140,3983,55,-178,3
34988,928,1172,3989,37,-180,32
34998,961,1187,3871,65,-213,18
35008,987,1162,3881,197,-289,-35
35018,1003,1127,3911,221,-298,-52
35029,1035,1133,3865,229,-265,-48
35039,1053,1152,3891,220,-231,-49
35049,1060,1204,3802,203,-228,-28
35059,1103,1242,3869,250,-239,-22
35069,1143,1299,3876,228,-225,-19
35079,1139,1288,3881,178,-202,-26
35089,1141,1276,3883,122,-195,-26
35099,1055,1190,3785,79,-185,-5
35109,1092,1065,3747,155,-248,-3
35119,1186,1096,3806,203,-257,-1
35129,1194,1177,3840,183,-206,-7
35139,1189,1241,3863,135,-169,14
35149,1207,1252,3863,100,-161,30
35159,1225,1190,3843,84,-158,37
35169,1231,1185,3795,132,-172,18
35179,1260,1187,3826,179,-169,10
35189,1277,1233,3841,145,-144,16
35199,1272,1293,3840,83,-123,34
35209,1305,1263,3838,29,-92,53
35219,1290,1219,3820,-2,-79,72
35230,1291,1225,3835,-28,-55,98
35240,1276,1216,3855,-68,-21,101
35250,1265,1282,3891,-87,-5,89
35260,1263,1294,3900,-114,9,89
35270,1306,1286,3901,-106,9,75
35280,1302,1318,3948,-106,37,49
35290,1295,1383,3906,-99,48,13
35300,1300,1344,3869,-79,51,-12
35310,1292,1263,3852,-39,29,-22
35320,1288,1246,3781,26,15,-41
35330,1329,1346,3734,124,0,-68
35340,1425,1463,3613,218,-27,-67
35350,1451,1570,3632,301,37,5
35360,1085,1571,3749,198,49,20
35370,1087,1700,3704,30,27,-20
35380,1218,1735,3777,-38,-26,-150
35390,1289,1857,3876,-122,-66,-368
35400,1134,2210,3956,-387,-37,-564
35410,983,2139,3814,-590,-1,-733
35420,-1430,2237,3006,-210,-540,-2232
35431,1401,1639,3564,-125,-879,-1981
35441,2924,1499,3202,-142,-784,-1228
35451,2701,1304,3125,171,-295,-681
35461,1652,1307,3262,371,-46,-265
35471,685,1456,3297,489,1,-180
35481,470,1421,3364,604,-149,-427
35491,803,1304,3428,691,-332,-616
35501,1267,1185,3480,753,-407,-716
35511,1610,1280,3452,653,-303,-679
35521,1651,1369,3471,443,-114,-507
35531,1441,1413,3507,267,14,-486
35541,1267,1940,2404,541,340,-531
35551,1760,1757,4677,873,518,-388
35561,1191,853,4048,-7,184,-311
35571,853,1512,4163,89,175,-646
35581,1413,1827,4446,-54,178,-886
35591,1404,1771,4423,-211,212,-752
35601,1295,1645,4314,-452,194,-558
35611,1232,1534,4093,-698,133,-411
35621,1292,1289,3810,-739,81,-326
35632,1298,966,3734,-688,-16,-166
35642,1629,886,3711,-612,27,-202
35652,2192,798,3482,-361,357,-735
35662,1587,620,3633,42,378,-617
35672,1132,803,3775,160,363,-188
35682,1033,1428,3772,314,246,-1
35692,1026,1751,3801,409,321,-233
35702,865,1504,3699,463,287,-362
35712,1047,1420,3808,355,96,-570
35722,1101,1311,3864,414,-108,-654
35732,785,1569,3937,524,-116,-685
35742,699,1979,4248,516,-210,-779
35752,744,2303,4486,390,-218,-910
35762,919,2227,4515,232,-239,-834
35772,872,2018,4470,121,-235,-678
35782,897,2011,4494,26,-239,-543
35792,1148,2167,4234,-122,-287,-316
35802,1059,2091,4213,-435,-305,-86
35812,1722,1775,3540,-873,-343,235
35822,1611,1933,3334,-623,-67,516
35833,1204,1105,3449,-494,221,917
35843,156,768,3129,-413,166,797
35853,53,960,3182,-135,105,156
35863,563,1297,3408,191,150,-242
35873,978,1746,3897,221,170,-219
35883,875,1836,4250,52,125,13
35893,502,1711,4376,-70,65,240
35903,273,1733,4389,-86,-84,317
35913,402,1577,4184,-44,-237,275
35923,544,1301,3682,30,-299,259
35933,833,838,3153,182,-197,193
35943,265,2512,2817,566,-93,-260
35953,1761,1424,3576,78,-168,365
35963,1068,1046,2979,84,-88,41
35973,1253,1350,3725,257,20,-309
35983,999,1498,3947,136,-17,-42
35993,970,1767,4087,-40,-134,109
36003,1251,1761,4072,-247,-214,92
36013,1340,1328,3953,-291,-156,26
36023,1251,980,3895,-104,-127,18
36034,1306,1071,3972,70,-122,2
36044,1282,1369,3882,196,-102,-36
36054,1095,1523,3719,343,-70,-90
36064,1014,1767,3562,441,-28,-120
36074,863,1963,3469,460,18,-112
36084,822,2045,3320,408,8,-124
36094,884,1992,3215,380,9,-134
36104,940,1829,3193,410,29,-135
36114,1051,1691,3435,462,47,-133
36124,1223,1690,3714,471,52,-103
36134,1336,1696,4183,521,62,-87
36144,1427,1838,4541,494,49,-57
36154,1311,2019,4648,385,-14,11
36164,1233,2028,4473,272,-86,39
36174,1198,2090,4252,150,-85,32
36184,1005,2291,3920,16,-82,25
36194,824,2361,3547,-23,-85,-2
36204,767,2307,3277,-13,-89,-29
36214,843,2119,3175,54,-61,-64
36224,976,2151,3365,79,-53,-86
36235,1023,2102,3522,103,4,-122
36245,1139,1886,3762,143,-19,-117
36255,1205,1861,3677,181,-50,-130
36265,1247,1846,3809,274,-23,-185
36275,1279,1698,3721,256,-2,-181
36285,1203,1669,3679,287,35,-157
36295,1217,1792,3791,282,50,-132
36305,1146,1987,3825,211,66,-93
36315,1079,2166,3907,155,45,-75
36325,1071,2202,3889,33,6,-30
36335,1001,2192,3852,-42,-31,5
36345,1050,2121,3782,-70,-41,21
36355,1020,2144,3749,-64,-26,7
36365,1006,2117,3626,-25,-7,-22
36375,967,2117,3473,56,9,-57
36385,934,2093,3328,164,43,-100
36395,995,2055,3361,241,68,-126
36405,1094,1975,3362,253,101,-142
36415,1118,1915,3451,278,113,-154
36425,1147,1914,3482,260,106,-139
36436,1108,2011,3522,171,83,-91
36446,1102,2015,3516,49,55,-20
36456,1080,1998,3489,-69,17,58
36466,1038,1925,3431,-119,7,111
36476,1033,1902,3396,-123,-1,117
36486,1063,1732,3374,-85,13,107
36496,1017,1820,3320,16,45,70
36506,955,2015,3416,102,72,39
36516,974,2152,3485,87,79,38
36526,948,2205,3512,32,79,42
36536,948,2183,3613,-26,65,43
36546,954,2106,3596,-91,35,51
36556,995,1888,3496,-97,8,12
36566,1016,1725,3444,-84,23,4
36576,982,1654,3481,-67,31,14
36586,1008,1713,3450,-2,25,-22
36596,925,1882,3495,44,49,-47
36606,895,1998,3612,22,44,-28
36616,879,2099,3598,-25,15,-33
36626,843,2130,3659,-71,11,-29
36637,826,2095,3606,-119,-15,-24
36647,791,1982,3592,-134,-35,-30
36657,842,1847,3557,-123,-53,-48
36667,840,1791,3522,-33,-33,-91
36677,899,1837,3577,25,-7,-116
36687,892,1909,3596,29,8,-102
36697,896,1992,3609,4,4,-95
36707,857,2037,3603,-50,25,-93
36717,866,2076,3583,-133,13,-88
36727,1102,2027,3559,-217,36,10
36737,3349,2509,3379,-286,0,1361
36747,675,1947,3125,-88,397,1204
36757,-953,1832,3311,0,460,667
36767,-410,2290,3075,88,270,-14
36777,2260,2430,2840,-781,263,-1409
36787,1729,1974,2492,-501,810,-261
36797,122,1459,2772,-523,736,325
36807,751,1671,2380,-350,820,-276
36817,188,1540,2672,-75,1023,-428
36827,171,1363,2593,43,1041,-634
36838,380,1555,2665,89,1096,-697
36848,265,1988,2850,259,1172,-922
36858,431,2024,3818,324,1311,-1003
36868,392,1881,4136,252,1288,-781
36878,11,1692,4094,582,1204,-657
36888,-317,2165,4289,956,1002,-611
36898,-884,2685,4324,1300,724,-743
36908,-929,2533,4408,1300,315,-736
36918,-589,2958,4490,1035,-152,-680
36928,264,4152,3559,297,-698,-556
36938,1034,3091,3753,-1051,-428,-297
36948,1598,28,3294,-770,-203,39
36958,1572,-1602,3772,275,58,631
36968,1272,-819,4867,1051,134,703
36978,779,1306,5249,1188,32,292
36988,514,3067,5067,1094,-52,247
36998,424,3490,4657,588,-81,262
37008,630,3430,3771,-90,-122,188
37018,800,3174,3012,-503,-166,114
37028,462,2421,2040,-533,-406,73
37039,879,1362,1676,-213,-359,33
37049,1753,2327,2607,216,-46,150
37059,1255,3104,3516,429,-7,187
37069,470,2418,3959,370,-147,183
37079,434,1840,4622,256,-172,152
37089,523,2232,4768,166,-153,112
37099,481,2657,5144,50,-100,87
37109,25,2385,5070,-80,-178,105
37119,0,2727,4437,-135,-353,34
37129,372,2675,3612,-27,-553,-125
37139,980,3633,3323,-404,-240,-201
37149,562,3457,3204,-167,-117,-5
37159,-507,1529,3281,92,-191,292
37169,-548,1286,2898,193,-341,141
