t_ms,ax,ay,az,gx,gy,gz
0,3141,-1226,1418,422,58,-65
10,3249,-1322,1414,382,4,-81
20,3306,-1295,1503,463,-29,26
30,3309,-1158,1562,472,-57,54
40,3062,-1040,1661,412,-71,54
50,3055,-942,1733,320,-76,33
60,3069,-895,1809,180,-84,15
71,2973,-894,1833,39,-105,1
81,2836,-986,1832,-60,-154,-40
91,2857,-1058,1707,-97,-186,-73
101,3031,-1106,1721,-108,-204,-90
111,3045,-1200,1775,-74,-208,-101
121,3094,-1233,1816,-50,-210,-111
131,3053,-1353,1795,-39,-252,-105
141,3000,-1733,1557,47,-276,-78
151,3062,-2127,1446,293,-237,-89
161,2995,-1704,1519,567,-230,-89
171,2916,-1399,1633,633,-275,-79
181,2871,-1155,1824,570,-328,-125
191,2802,-1007,2031,393,-371,-226
201,2920,-1005,2138,183,-421,-356
211,2998,-1233,2030,24,-461,-500
221,3413,-1280,1936,-26,-503,-550
231,3774,-1495,1580,32,-438,-505
242,3593,-1176,2074,7,-512,-405
252,3516,-1052,1989,-170,-544,-414
262,4134,-1409,1970,-299,-562,-551
272,4512,-1163,1983,-358,-564,-558
282,4562,-1364,1936,-420,-604,-659
292,4735,-1480,1784,-374,-611,-737
302,4822,-1431,1733,-237,-601,-766
312,4785,-1203,1620,-102,-575,-749
322,4761,-960,1477,-10,-533,-739
332,5009,-830,1381,92,-487,-791
342,4733,-881,1436,183,-440,-937
352,5005,-692,1550,317,-424,-1046
362,4976,-583,1575,338,-427,-1124
372,4925,-497,1516,338,-403,-1121
382,4718,-393,1523,273,-365,-1049
392,4404,-535,1409,131,-314,-1008
402,4234,-399,1287,96,-227,-921
413,3959,-460,1270,107,-126,-749
423,3599,-515,1249,105,-64,-743
433,3446,-380,1135,99,-27,-706
443,3431,-177,1106,54,24,-644
453,3228,-91,1137,-2,77,-597
463,3412,-245,1061,-26,95,-622
473,3515,207,1141,-105,98,-541
483,3417,431,1100,-328,98,-534
493,3169,-67,1032,-501,57,-608
503,2926,-285,971,-490,45,-703
513,3042,-623,1071,-513,34,-1018
523,3966,-150,746,-415,81,-1346
533,3455,-130,836,-271,180,-1294
543,3438,482,1080,-206,332,-1376
553,4238,1418,1357,-350,338,-1255
563,5118,1601,1391,-656,297,-1078
574,5115,1883,1261,-1037,225,-711
584,5024,1857,1052,-1389,219,-411
594,4561,2261,1032,-1676,335,-362
604,5330,2620,1011,-1946,523,-535
614,5647,3336,1275,-2042,754,-365
624,4310,3600,2465,-2548,684,559
634,1988,3940,1625,-4057,185,1193
644,4690,8439,2114,-6075,-326,1391
654,227,3306,297,-7054,-461,1287
664,2523,-336,-851,-6583,-291,-884
674,2952,-788,-401,-5224,-4,-462
684,3389,1105,-29,-4453,224,-760
694,3082,2997,344,-4495,367,-880
704,2611,3240,155,-5119,383,-862
714,2712,2169,-72,-5718,389,-910
724,3372,701,2,-6010,378,-1071
734,3659,30,-162,-6243,325,-1067
745,3446,311,-551,-6178,288,-1147
755,3358,698,-582,-6216,185,-1153
765,3314,472,-816,-6240,-25,-1022
775,3453,-254,-1338,-5985,-269,-850
785,3623,-881,-1712,-5633,-310,-656
795,3681,-1174,-1424,-5496,-290,-613
805,3596,-1125,-927,-5244,-212,-677
815,3509,-800,-284,-5030,-197,-652
825,3326,-773,-495,-4672,-327,-546
835,3367,-506,-551,-5156,-428,-387
845,3456,-588,-771,-5066,-329,-257
855,3020,-827,-1057,-5160,-446,-274
865,2773,-490,-1044,-5789,-551,-248
875,2923,-894,-1206,-6126,-778,50
885,2822,-1614,-1269,-6142,-929,237
895,2519,-1399,-1773,-5618,-888,259
905,2423,-769,-1474,-5673,-1027,505
916,2390,-142,-1755,-6002,-1206,740
926,2830,-281,-2161,-6595,-1203,863
936,3107,-845,-2718,-7122,-1024,995
946,3302,-1879,-2611,-7122,-717,988
956,3756,-2547,-3405,-6637,-333,849
966,3617,-3149,-2798,-5555,45,730
976,2826,-3042,-1978,-4561,170,716
986,3320,-2282,-4254,-3692,422,588
996,1283,-1031,-893,-3350,392,690
1006,1593,-350,-55,-3518,342,528
1016,4677,-398,-1393,-3648,594,233
1026,4518,-763,-941,-3906,340,126
1036,4356,-719,-1566,-4047,-12,-46
1046,4392,-315,-2317,-3670,-235,-150
1056,4796,-351,-2022,-3377,-222,-156
1066,5365,-711,-1896,-3567,-144,-211
1077,5830,-1096,-1862,-3386,69,-240
1087,5779,-1425,-1488,-3100,246,-203
1097,5603,-1489,-1292,-2843,352,-194
1107,5551,-1395,-1102,-2611,407,-269
1117,5460,-1328,-993,-2424,394,-353
1127,5339,-1307,-1134,-2170,375,-446
1137,5047,-1127,-1161,-2064,391,-419
1147,4824,-802,-1367,-2002,433,-364
1157,4742,-717,-1072,-2142,493,-369
1167,4833,-924,-775,-2410,564,-450
1177,4684,-1228,-781,-2354,577,-497
1187,4485,-1319,-636,-2173,507,-519
1197,4311,-1136,-527,-2096,421,-459
1207,4228,-1132,-175,-2035,320,-444
1217,4255,-1427,-41,-2136,300,-402
1227,4266,-1753,232,-2606,383,-284
1237,4190,-2215,-175,-2712,493,-141
1247,4063,-2495,-526,-2531,630,-14
1257,4347,-2533,-1345,-2241,803,273
1267,5028,-3492,-752,-1950,1187,887
1278,5905,-4046,4874,-3169,1722,1387
1288,4378,-910,-5025,-2323,-865,107
1298,8747,1591,-5469,1302,-435,1088
1308,7934,978,879,-1264,1760,4291
1318,2792,-379,-2929,-4846,-456,3470
1328,757,-2747,135,-1591,-659,4005
1338,1788,-3062,2194,-1237,-1993,4958
1348,6073,-1495,-2258,-235,-1975,3443
1358,8202,401,-980,912,-1266,3498
1368,8342,1019,2210,1043,-1087,4469
1378,9784,279,-336,-794,-589,4657
1388,6680,-3882,-646,-2218,172,5791
1398,4613,-9894,-3057,267,938,5507
1408,2765,-11066,-2667,-241,1708,5327
1418,4069,-9044,-2380,1729,2160,4360
1428,5090,-6932,-2544,2087,2114,4770
1438,4270,-6069,-118,1444,2163,4128
1448,4134,-3519,-690,711,1809,3431
1458,2982,-3948,1393,-348,1110,3046
1468,3847,-3837,626,-204,636,2762
1479,3017,-3999,388,-388,-173,3328
1489,4132,-6311,448,108,-692,3383
1499,4591,-6865,-12,938,-927,3443
1509,4470,-5200,-50,1015,-800,3449
1519,5723,-2536,-1316,595,-205,3377
1529,5664,-2269,-1390,199,272,3614
1539,5147,-4496,-349,-397,1114,3699
1549,4257,-4809,948,-721,1913,3452
1559,4330,-3161,1415,-669,2536,3228
1569,3180,-810,1889,-932,2622,3283
1579,2101,-486,1844,-1304,2305,3160
1589,2469,-1804,937,-1321,2176,2904
1599,2686,-2019,310,-1028,2252,2729
1609,2292,-960,-38,-980,2199,2446
1619,2102,123,-242,-1032,2186,2138
1629,1726,125,-30,-1166,2067,1903
1639,1306,-737,169,-1060,1895,1608
1649,983,-586,210,-806,1636,1218
1659,900,217,92,-507,1203,776
1669,869,73,-100,-280,725,507
1680,1210,-138,-368,-494,411,178
1690,1211,-1697,-681,-386,176,99
1700,883,-3328,-175,-342,-288,-411
1710,733,-2347,-394,-797,-658,-583
1720,669,-2352,-662,-1221,-935,-831
1730,1558,-4416,-1141,-976,-847,-1077
1740,1964,-5704,-722,-494,-225,-1176
1750,2192,-5575,292,148,150,-1255
1760,1827,-4343,341,185,86,-962
1770,2384,-4680,-2066,1014,-29,-310
1780,4642,-7538,702,2068,705,648
1790,3696,-8296,100,1155,877,956
1800,3676,-7281,-449,1471,1388,1353
1810,3462,-7046,1252,1058,1990,2056
1820,2292,-7613,811,917,2349,2166
1830,1772,-7665,1122,1160,2468,2245
1840,2004,-5306,283,607,2227,2101
1850,2272,-3494,-850,1245,2439,2013
1860,1238,-2999,-181,948,2298,2525
1870,686,-2765,-1701,491,2042,2549
1881,1329,-2892,-2550,-225,2114,2787
1891,2176,-4707,-2254,-683,2441,3036
1901,1515,-5586,-1276,-998,2716,3066
1911,229,-5121,-287,-1476,2586,3301
1921,53,-5122,-649,-1896,2541,3677
1931,483,-5963,-942,-2509,2580,4043
1941,692,-7016,-1478,-2934,2635,4249
1951,495,-7260,-1548,-2770,2740,4580
1961,85,-6310,-1768,-2800,2869,4845
1971,-520,-5688,-1539,-2727,3045,4975
1981,-1044,-4567,-1588,-3260,2947,4884
1991,-1233,-3044,-2300,-3378,3012,4949
2001,-1623,-2982,-2378,-3797,3081,4965
2011,-1808,-3026,-2655,-4010,3216,4792
2021,-1690,-2051,-3085,-4150,3417,4634
2031,-1391,-559,-3587,-4178,3678,4337
2041,-1081,475,-4235,-4270,4058,4007
2051,-1021,1335,-4654,-4368,4491,3628
2061,-597,2174,-4009,-4711,4928,3104
2071,-389,3422,-4009,-5383,5134,2449
2082,765,3659,-4364,-5609,5256,1837
2092,2710,4711,-4635,-5242,5331,1234
2102,4451,6538,-4920,-4370,5429,493
2112,6718,8872,-5355,-3336,5459,-559
2122,9653,11129,-6353,-2461,5074,-2143
2132,12805,13198,-7345,-1271,4257,-4029
2142,15222,15111,-7898,178,2945,-6060
2152,16657,15937,-7108,1780,598,-7895
2162,18902,15363,-5705,3784,-1892,-9396
2172,20696,11599,-2618,6280,-4632,-10414
2182,21526,7061,1543,9338,-7255,-11181
2192,21479,3666,6302,12938,-9796,-11011
2202,21907,1293,12704,15991,-12865,-10096
2212,20463,-2655,14894,18607,-14150,-8396
2222,19281,-6065,16220,20779,-15502,-6287
2232,17502,-10024,13906,21867,-15688,-3827
2242,15944,-9341,6550,22100,-14558,-2311
2252,14429,23528,492,17648,-9971,1301
2262,32706,6771,13618,7139,-11958,-3876
2272,2259,-13738,8104,15692,-10424,7805
2283,4517,-1659,-1516,15032,-8031,-1197
2293,4185,8376,-7442,19371,-5945,2273
2303,5215,8634,-3345,18939,-5682,5513
2313,8631,5652,-1070,14416,-4812,4877
2323,11311,2064,2210,11680,-3281,3833
2333,12271,2499,1679,9367,-2722,4336
2343,11392,8451,4816,7301,-2966,5051
2353,9589,11631,5237,3407,-3717,5303
2363,9590,7330,3685,1235,-3881,5026
2373,10385,3932,4522,1306,-3281,4386
2383,10795,6084,5524,1308,-2737,3724
2393,10163,8907,7512,1016,-2280,3479
2403,7988,9251,9054,0,-2232,3486
2413,6589,7993,8854,-1043,-2134,3098
2423,6901,6339,8487,-1695,-1740,2590
2433,7148,5463,8431,-1823,-1372,2256
2443,6395,4006,8237,-1202,-1130,2235
2453,6022,3543,7919,-1002,-953,2033
2463,5734,3137,8128,-752,-781,1758
2473,5216,2779,8232,-637,-701,1566
2484,4811,2522,8246,-717,-656,1337
2494,4439,1917,8201,-902,-569,1134
2504,4059,1198,7515,-1131,-474,948
2514,3796,630,6459,-935,-336,805
2524,3549,-144,6063,-435,-104,753
2534,3241,-571,6014,-14,78,748
2544,2905,-738,5958,326,162,677
2554,2714,-822,5854,405,124,551
2564,2635,-959,5370,501,117,434
2574,2505,-1243,4547,483,268,327
2584,2094,-2038,4559,344,332,207
2594,1576,-2276,4255,91,484,-6
2604,974,-2013,3815,540,702,-108
2614,449,-1644,3534,958,767,-112
2624,86,-1410,3521,1116,738,-110
2634,-1596,-1253,3975,544,168,-181
2644,1434,2309,-3165,93,2171,-2722
2654,1441,-9251,4963,3205,1044,500
2664,772,-5335,2207,1311,286,718
2674,1592,-1114,2074,2595,251,-226
2685,3578,882,3034,2573,288,-459
2695,1629,-635,3661,1403,438,64
2705,268,-2207,2925,488,128,-42
2715,194,-1894,2079,533,69,-623
2725,1004,-582,1956,308,174,-1171
2735,1147,888,2086,-626,216,-1578
2745,928,1734,1597,-2223,-155,-1882
2755,1081,2750,543,-3820,-405,-2282
2765,1371,2632,-996,-4578,-556,-2641
2775,1883,1564,-2690,-5080,-797,-2517
2785,2349,477,-3568,-5119,-965,-2345
2795,2875,-566,-4025,-4899,-991,-2355
2805,3201,-1491,-3998,-4415,-908,-2375
2815,3299,-1874,-3283,-3784,-735,-2357
2825,3148,-1831,-2477,-3129,-634,-2404
2835,3042,-1430,-1689,-2741,-616,-2489
2845,3220,-1024,-1003,-2456,-619,-2598
2855,3722,-769,-133,-2430,-581,-2717
2865,4429,-739,591,-2685,-497,-2870
2875,5239,-635,918,-3303,-354,-2973
2886,5775,-412,1160,-3952,-192,-3039
2896,6008,-317,1251,-4684,-44,-3089
2906,6038,-326,945,-5426,55,-3030
2916,5965,-579,748,-6130,228,-3001
2926,5886,-933,737,-6886,421,-3036
2936,5804,-1221,495,-7357,640,-3124
2946,6005,-1454,315,-7572,831,-3169
2956,6397,-1929,289,-7453,1062,-3153
2966,6687,-2541,319,-7301,1297,-3119
2976,6679,-2716,22,-7138,1536,-3122
2986,6697,-2430,34,-6979,1762,-3111
2996,6713,-2144,-219,-6817,1896,-3059
3006,6794,-2104,-500,-6625,1956,-2849
3016,6715,-2220,-734,-6538,2008,-2614
3026,6536,-2396,-800,-6668,2042,-2409
3036,6448,-2702,-915,-6741,2099,-2292
3046,6368,-3395,-1008,-6558,2140,-2171
3056,6259,-3816,-1298,-6277,2141,-2110
3066,6223,-3868,-1309,-5744,2256,-2070
3076,6018,-3617,-1306,-5328,2344,-1970
3087,5790,-3493,-1159,-5117,2352,-1865
3097,5589,-3699,-1532,-4906,2278,-1689
3107,5356,-3992,-1695,-4736,2365,-1423
3117,5106,-3853,-1899,-4636,2430,-1386
3127,4959,-3594,-2045,-4400,2495,-1294
3137,4482,-3294,-1937,-4368,2574,-1069
3147,4054,-2872,-2077,-4603,2515,-935
3157,3932,-2718,-2420,-4742,2466,-930
3167,3923,-2988,-2460,-4814,2429,-874
3177,3732,-2933,-2135,-4956,2416,-753
3187,3145,-2578,-2177,-4901,2304,-686
3197,2695,-2409,-2281,-4519,2236,-470
3207,2394,-2257,-2585,-4268,2205,-251
3217,2591,-2116,-2966,-4100,2221,-204
3227,2927,-2252,-3378,-3977,2338,-196
3237,2999,-2178,-3987,-3576,2475,-409
3247,3050,-2227,-4304,-2638,2860,-215
3257,2549,-2287,-3702,-1760,3431,235
3267,1777,-2165,-2665,-2521,3555,421
3277,2148,-1152,-2107,-3859,3439,-364
3288,2441,-587,-1787,-4235,3376,-884
3298,1907,-411,-1784,-4385,3217,-836
3308,2384,-294,-2433,-4246,3125,-834
3318,3107,-493,-2748,-3922,3023,-864
3328,3657,-882,-2958,-3436,3116,-905
3338,4169,-831,-2160,-2988,2898,-1003
3348,3865,-571,-1630,-2528,2819,-1045
3358,4019,37,-1862,-2460,2681,-1234
3368,4393,302,-1834,-2586,2468,-1344
3378,4832,871,-2817,-2769,2414,-1361
3388,5356,1339,-3262,-2696,2459,-1368
3398,5886,1632,-3706,-2765,2523,-1467
3408,6307,2263,-4024,-2689,2524,-1618
3418,6821,2284,-4264,-2317,2282,-1812
3428,7990,1728,-5526,-1511,2053,-2054
3438,9329,2296,-6202,-464,1645,-2351
3448,10477,3438,-6265,113,1039,-2750
3458,12736,4102,-6847,545,-28,-3205
3468,14717,4781,-7249,563,-1142,-3233
3478,16499,4316,-7049,1062,-2390,-3111
3489,18715,4065,-6021,1902,-3630,-2845
3499,21132,3363,-3917,2902,-5658,-2656
3509,23800,2614,-1512,4030,-8067,-2521
3519,25564,2595,643,5237,-10451,-2608
3529,25886,2313,3898,6681,-12391,-2745
3539,24711,1430,7612,7779,-14024,-3063
3549,23810,287,10736,8357,-15338,-3510
3559,23168,-293,12920,8952,-16055,-3323
3569,21737,-2275,14526,9542,-16447,-2234
3579,16691,-4255,16363,9465,-17134,-1322
3589,11884,-4632,13070,8343,-16995,-770
3599,11912,-5100,3885,7416,-17047,312
3609,22987,-5892,-4672,7827,-9476,3110
3619,18461,5400,5031,1566,-9835,-3341
3629,816,15897,22013,5273,-14105,-61
3639,-7434,2831,-3034,715,-11689,4172
3649,2834,-5929,-2440,3368,-14345,2767
3659,8856,-10191,-4584,948,-11498,2243
3669,9000,-4387,-6809,6433,-8066,-1494
3679,7754,1158,-2493,8833,-6247,-570
3690,4883,4548,-816,7721,-5638,1879
3700,3971,2406,535,5542,-4945,2926
3710,4551,-1727,291,4132,-4209,2725
3720,4645,-3339,581,4413,-3310,2552
3730,4184,-2069,1643,3958,-2601,2391
3740,3349,-761,1334,3745,-2272,2530
3750,2952,-798,1497,3316,-2017,2706
3760,3250,-1177,1637,3079,-1707,2291
3770,3204,-452,2260,2640,-1387,1937
3780,3236,417,1933,2130,-1133,1601
3790,3391,582,1588,2061,-679,1475
3800,3444,183,1760,2152,-203,1295
3810,3297,-131,1703,2357,230,842
3820,2924,40,1402,2824,574,405
3830,2743,579,1047,3278,785,-85
3840,3183,1765,3485,2571,1646,-496
3850,2087,3794,4760,1,1578,-1230
3860,1026,2841,2196,29,998,-1370
3870,202,185,2297,15,816,-1269
3880,975,-596,1555,-953,641,-1853
3891,2296,-539,1026,-765,1013,-2384
3901,2590,-706,1291,-453,1532,-2680
3911,2035,-1090,953,267,1634,-2733
3921,1997,-1610,767,638,1778,-2703
3931,2104,-1820,-2,907,1986,-2793
3941,2090,-1936,-593,1538,2262,-3108
3951,1906,-2249,-527,2335,2264,-3311
3961,1500,-3084,-167,2799,2050,-3332
3971,1312,-4179,-765,2930,1853,-3506
3981,1807,-5572,-2088,3030,1653,-3790
3991,2621,-7072,-2875,3010,1540,-3877
4001,2953,-7290,-3247,2188,1438,-3880
4011,2574,-6376,-4131,1625,1312,-4013
4021,1954,-6103,-3230,1093,1260,-4050
4031,1362,-7099,-3530,581,1010,-3937
4041,1113,-8594,-3546,631,821,-3714
4051,955,-9159,-3244,808,733,-3620
4061,689,-8002,-2877,893,833,-3564
4071,348,-6463,-1802,927,938,-3393
4081,-285,-5715,-1576,361,818,-3119
4092,-628,-5456,-1911,-562,597,-2829
4102,-603,-5698,-2230,-1231,478,-2561
4112,-323,-6224,-2943,-1530,415,-2389
4122,-135,-6827,-2965,-919,576,-2323
4132,10,-6679,-2291,-451,759,-2138
4142,-290,-5653,-2106,177,948,-2065
4152,190,-4337,-164,474,1199,-1942
4162,-177,-4669,1448,-115,1594,-1052
4172,-712,-6183,1427,-642,1912,-806
4182,-1287,-7020,612,-257,2067,-833
4192,-1050,-6289,766,331,2068,-783
4202,-204,-4024,1638,84,2000,-644
4212,-127,-3015,361,-535,1989,-515
4222,230,-3645,-345,-284,1800,-78
4232,45,-4525,-356,-274,1648,303
4242,198,-4330,-603,-99,1525,135
4252,712,-3245,-347,159,1463,-37
4262,784,-2493,297,-331,1416,0
4272,626,-2269,-502,-1358,1190,73
4282,635,-3094,-663,-1692,1036,42
4292,755,-5059,-203,-1466,1147,124
4302,998,-5992,843,-811,1111,-68
4312,1188,-4262,920,-757,1310,-374
4322,1269,-3003,23,-972,1128,-277
4332,1764,-3583,1198,-1062,1064,128
4343,2470,-4239,2137,-1611,1356,-58
4353,3202,-3896,1398,-1482,1757,-382
4363,3338,-3136,1278,-1256,2327,-183
4373,2646,-3009,2828,-1811,2898,241
4383,2054,-3699,1555,-1932,3040,337
4393,1789,-4381,1710,-1679,3158,665
4403,1875,-4513,2766,-1599,3439,754
4413,2179,-5042,3608,-1309,3947,817
4423,2029,-6341,3859,-535,4136,1022
4433,1739,-7132,2814,744,3828,905
4443,1637,-5934,1661,2056,3317,657
4453,1795,-3997,2495,2310,3315,448
4463,1829,-2697,3056,1759,3297,414
4473,1518,-2640,3402,1018,3331,427
4483,1138,-3428,3315,31,3002,439
4493,1121,-4680,2706,-624,2516,446
4503,1445,-6100,2424,-658,2211,323
4513,1968,-7290,1822,-192,2191,253
4523,2410,-8375,1769,565,2499,156
4533,2734,-8954,2447,1200,3003,-261
4543,2457,-8544,3436,2107,3711,-519
4553,1699,-6992,3116,2756,3933,-910
4563,1755,-5690,2892,3044,3822,-1377
4573,1609,-4809,1538,1780,3720,-1303
4583,1818,-3634,673,642,3641,-1360
4594,2066,-1793,-1340,426,3634,-1214
4604,2173,367,-2978,1418,4286,-650
4614,1910,843,-1955,2795,4520,-142
4624,3460,-2474,578,1917,4393,297
4634,5165,-6936,2531,-1295,4999,1877
4644,4569,-10781,30,-2614,5354,2431
4654,5335,-12893,109,-535,6094,2028
4664,4606,-16285,6064,2550,7488,2920
4674,-383,-11368,2085,2251,4211,1685
4684,1856,1625,-5252,4593,3749,-94
4694,2723,5282,457,3753,4463,1112
4704,333,713,-2237,231,2719,1360
4714,2044,-4734,-2955,-37,2569,1484
4724,2302,-6055,-2974,575,3107,1573
4734,1493,-4593,-703,1466,3564,1346
4744,812,-2937,690,1297,3616,1317
4754,559,-2717,800,688,3581,1463
4764,669,-3737,502,54,3602,1567
4774,652,-4270,-399,-640,3717,1474
4784,537,-3738,-951,-1335,3901,1513
4794,270,-3071,-1386,-2061,4062,1624
4804,-320,-2779,-1427,-2689,4193,1764
4814,-686,-2352,-2589,-3188,4289,1905
4824,-682,-2007,-3719,-3420,4421,2231
4834,-677,-1577,-5207,-3955,4427,2553
4845,-777,-1330,-6200,-4172,4456,2804
4855,-959,-1709,-6414,-4190,4415,2722
4865,-771,-2160,-6073,-4206,4375,2494
4875,-463,-2029,-5905,-4120,4225,2251
4885,-368,-1009,-5808,-4071,4010,1999
4895,-424,605,-6204,-4726,3884,1743
4905,73,1756,-7358,-5297,3792,1301
4915,1347,2214,-8230,-5837,4147,810
4925,2719,2567,-8309,-6088,4874,415
4935,3421,3696,-8708,-6067,5570,-9
4945,4175,5541,-8652,-6124,6171,-644
4955,5383,7662,-8819,-6582,6514,-1903
4965,7789,9155,-10484,-6949,6622,-3249
4975,11718,9220,-12488,-6765,6845,-4877
4985,15556,8924,-13810,-5545,6798,-6562
4995,17892,9575,-13595,-3663,6233,-8630
5005,20273,9635,-11193,-1445,4746,-10831
5015,23125,9609,-8025,1321,2495,-13139
5025,26230,10351,-3644,3568,-474,-15172
5035,30967,6880,925,6156,-3373,-16243
5045,-32768,1649,7099,9268,-6400,-16771
5055,-32768,-3074,10796,13288,-9171,-16498
5065,-32768,-3457,11354,16453,-10877,-15520
5075,-32768,-6460,10371,18909,-12349,-13475
5085,-32768,-12064,7937,19545,-13986,-10326
5096,-32768,-15287,-3943,21746,-15287,-6463
5106,31528,-16319,-10956,23578,-16206,-2386
5116,18252,7100,-28582,17377,-7970,-1150
5126,-32768,14942,15225,4642,-10260,-5657
5136,15568,-3023,17260,6522,-11363,9693
5146,8872,-14747,2929,4150,-9066,4057
5156,12832,-4909,-836,3652,-7245,1276
5166,16130,85,1834,4174,-5575,1074
5176,13731,2527,-213,3387,-4769,3173
5186,11148,1220,1930,1821,-4581,3330
5196,11735,-2163,2199,497,-4997,3104
5206,13930,-3398,2694,-1302,-5580,2779
5216,15329,-4404,3180,-1594,-5704,2903
5226,13875,-6325,5969,-1713,-5648,3377
5236,12206,-6046,6183,-1802,-5713,2927
5246,12609,-4162,6653,-1606,-5465,2768
5256,12383,-3521,7224,-1539,-5210,3023
5266,10939,-3300,7686,-1680,-4975,2715
5276,9165,-2473,7735,-1450,-4906,2253
5286,7556,-1693,8073,-971,-4895,2103
5297,5888,-836,8627,-771,-4904,1937
5307,4560,-337,8468,-465,-4739,1706
5317,3778,-152,8309,-331,-4456,1546
5327,3348,-221,8247,-46,-4062,1371
5337,3190,-108,8064,16,-3583,1145
5347,3331,222,7290,-40,-3054,845
5357,3323,349,6427,-83,-2610,649
5367,2886,-172,5693,231,-2315,608
5377,2396,-980,5021,771,-2104,667
5387,1939,-1111,4695,1108,-1898,567
5397,1966,-748,3679,1425,-1798,369
5407,1749,-655,3506,1715,-1682,249
5417,1587,-480,3191,1219,-1626,-32
5427,1176,-396,2893,683,-1624,-420
5437,713,-790,2583,273,-1653,-764
5447,344,-1487,2111,-235,-1677,-985
5457,104,-2456,1282,-555,-1627,-1132
5467,183,-3911,437,-622,-1507,-1275
5477,430,-5977,-107,-529,-1344,-1356
5487,560,-7438,-271,-424,-1064,-1419
5498,331,-7712,-404,29,-751,-1570
5508,-345,-7179,-278,548,-545,-1646
5518,-1216,-6399,-262,709,-503,-1578
5528,-1773,-6122,-667,615,-485,-1598
5538,-1996,-5911,-1180,292,-483,-1569
5548,-2088,-5374,-1367,-51,-476,-1443
5558,-2073,-5041,-1488,-682,-415,-1414
5568,-2014,-5856,-1391,-1072,-325,-1307
5578,-2028,-6948,-1751,-929,-249,-1202
5588,-1884,-6607,-1453,-678,-171,-1159
5598,-1539,-5273,-1110,-602,-45,-1109
5608,-1304,-4545,-886,-729,84,-986
5618,-1348,-4642,-830,-863,302,-883
5628,-1465,-4934,-1123,-809,499,-865
5638,-1570,-5031,-999,-421,655,-786
5648,-1475,-4738,-477,-208,710,-713
5658,-1250,-4213,-411,-160,761,-662
5668,-947,-3899,-393,-195,806,-606
5678,-723,-3854,-30,-317,774,-497
5688,-529,-3846,-49,-506,682,-387
5699,-449,-3946,-269,-648,603,-224
5709,-402,-3946,-424,-971,554,-181
5719,-329,-3948,-716,-1124,566,-159
5729,-394,-4018,-936,-1219,636,-118
5739,-455,-4127,-1181,-1047,675,-99
5749,-443,-4444,-1404,-679,681,-60
5759,-311,-4797,-1088,-249,796,-20
5769,562,-6344,1916,500,1229,35
5779,830,-7279,2450,-3,1403,345
5789,325,-4972,-401,-45,1592,-179
5799,-99,-3012,-678,1005,1809,-218
5809,-637,-2245,-187,649,1754,152
5819,-818,-2516,-783,103,1412,343
5829,-496,-3489,-1090,-118,1130,356
5839,-168,-4227,-1067,20,1030,399
5849,-119,-4313,-1033,375,981,288
5859,-81,-4212,-562,841,973,125
5869,-227,-3519,72,898,979,-12
5879,-275,-2810,-159,777,915,-149
5889,-56,-3249,116,897,856,-21
5900,290,-4187,657,767,856,97
5910,502,-4291,414,814,939,-1
5920,487,-4030,452,1023,991,-45
5930,155,-3596,339,852,1016,10
5940,-277,-3026,123,363,939,38
5950,-421,-2796,-526,-86,844,-5
5960,-358,-3005,-656,-529,673,-44
5970,-195,-3142,-471,-905,549,-238
5980,-9,-3467,30,-960,473,-412
5990,-23,-3699,-97,-1026,444,-408
6000,-12,-3886,-904,-774,307,-361
6010,454,-4045,-674,-506,263,-365
6020,973,-3940,-19,-238,426,-358
6030,878,-3712,-22,-28,567,-310
6040,561,-3601,249,58,557,-312
6050,361,-3638,457,34,493,-296
6060,302,-3746,41,56,439,-246
6070,386,-3912,-302,183,353,-193
6080,572,-4090,-471,336,315,-150
6090,697,-4454,-357,548,345,-159
6101,689,-4768,-46,747,385,-189
6111,604,-4759,121,1016,381,-179
6121,504,-4474,402,1163,393,-105
6131,424,-4108,637,1075,345,-37
6141,398,-3944,919,812,298,-11
6151,395,-3941,1015,433,266,-31
6161,472,-4245,646,197,183,-40
6171,660,-4589,547,2,180,-29
6181,697,-4511,321,-219,224,-71
6191,690,-4439,232,-206,275,-126
6201,625,-4351,120,-2,288,-119
6211,585,-4058,46,128,265,-65
6221,607,-3817,-110,177,234,-9
6231,657,-3786,-108,245,198,24
6241,678,-3899,85,320,176,70
6251,569,-3925,187,352,122,95
6261,585,-3879,188,383,49,87
6271,661,-3985,260,353,3,133
6281,683,-4093,309,333,-18,156
6291,664,-3969,182,385,-6,153
6301,563,-3772,57,467,8,217
6311,463,-3668,37,538,9,262
6321,343,-3753,-7,544,-28,248
6331,404,-3865,-418,579,-63,196
6341,603,-3864,56,631,84,282
6352,549,-3869,330,591,101,248
6362,470,-3864,516,599,35,205
6372,407,-3690,496,497,-36,228
6382,526,-3729,488,412,-77,252
6392,658,-3976,441,262,-88,263
6402,667,-4178,278,368,-74,267
6412,673,-4224,359,467,-35,239
6422,571,-3935,188,571,-11,203
6432,579,-3882,302,696,-3,190
6442,520,-3887,450,712,-2,195
6452,540,-3827,735,732,-40,160
6462,599,-3573,924,645,-66,150
6472,672,-3369,1026,513,-126,161
6482,682,-3517,946,343,-192,208
6492,697,-3831,708,196,-235,204
6502,765,-4031,462,215,-218,167
6512,785,-4003,503,260,-188,157
6522,678,-3690,385,340,-178,164
6532,693,-3477,606,384,-194,258
6542,591,-3406,672,415,-208,317
6552,585,-3706,817,343,-231,274
6562,673,-3752,786,269,-241,202
6572,700,-3753,737,381,-222,200
6582,787,-3981,597,520,-189,233
6592,775,-4040,614,593,-120,239
6603,801,-3806,519,726,-74,236
6613,752,-3747,678,774,-23,298
6623,632,-3697,896,676,-7,272
6633,647,-3595,936,668,-9,268
6643,740,-3550,1117,597,5,308
6653,661,-3415,1165,454,-13,294
6663,564,-3398,1183,290,9,256
6673,508,-3504,1130,108,39,193
6683,496,-3699,890,176,60,156
6693,456,-3960,906,307,103,143
6703,415,-3961,866,440,157,123
6713,364,-3908,1003,558,192,130
6723,341,-3940,1079,560,217,126
6733,413,-3949,1145,503,248,123
6743,392,-4007,1239,385,256,107
6753,410,-4013,1245,304,250,120
6763,321,-3914,1290,114,245,133
6773,235,-3784,1401,-119,223,92
6783,173,-3796,1214,-228,196,80
6793,93,-4111,1240,-178,197,65
6803,-15,-4072,1263,-44,196,59
6813,-80,-3868,1471,72,249,82
6823,-183,-3702,1647,12,271,46
6833,-347,-3558,1604,-108,300,18
6843,-389,-3603,1596,-236,338,6
6854,-445,-3698,1656,-314,364,-19
6864,-471,-3783,1853,-359,365,-23
6874,-469,-3833,1924,-354,327,-19
6884,-369,-3939,1887,-293,285,-53
6894,-261,-4163,1830,-381,302,-117
6904,-435,-4004,1744,-449,315,-91
6914,-447,-3729,1192,-483,298,-127
6924,-189,-4194,1442,-340,238,-59
6934,-396,-4192,1413,-327,218,-65
6944,-437,-4034,1696,-325,173,-77
6954,-477,-3965,1952,-435,80,-118
6964,-504,-3903,1982,-485,-29,-126
6974,-445,-3871,1727,-453,-92,-95
6984,-203,-4228,1648,-466,-45,-92
6994,-104,-4168,1338,-501,27,-141
7004,-61,-4105,1069,-256,165,-134
7014,-133,-3990,955,-270,259,-92
7024,-137,-3800,766,-155,347,-93
7034,-148,-3672,830,-44,404,-22
7044,-243,-3624,904,17,409,34
7054,-331,-3451,1105,-78,399,63
7064,-479,-3255,1483,-290,347,80
7074,-749,-3065,1743,-422,196,92
7084,-969,-2743,2017,-590,-14,92
7094,-842,-2582,1466,-827,-89,95
7105,-493,-3098,1205,-1280,14,111
7115,-384,-3068,697,-2385,217,20
7125,-441,-2650,107,-2749,327,-263
7135,-786,-2816,417,-2862,432,-206
7145,-1294,-3949,336,-2852,363,68
7155,-1115,-4814,-185,-2572,286,111
7165,-339,-4869,-215,-1701,324,52
7175,-6,-4242,376,-1003,306,6
7185,30,-3477,1179,-302,191,-176
7195,92,-2953,1830,109,65,-250
7205,12,-3066,2071,97,-55,-287
7215,-85,-3528,1904,32,-88,-481
7225,-183,-3924,2258,123,-78,-574
7235,-475,-4078,2532,24,-22,-601
7245,-351,-4100,2292,-272,52,-758
7255,-40,-4030,1599,-392,119,-805
7265,130,-3728,-343,-213,119,-867
7275,713,-3999,189,472,257,-684
7285,1025,-4708,414,846,404,-445
7295,1549,-6959,1694,2314,775,-62
7306,855,-8336,1631,3062,980,135
7316,667,-6538,-402,4411,1266,-226
7326,455,-4458,335,6051,1746,-156
7336,-424,-3127,1044,6017,1748,-224
7346,-966,-2677,701,5892,1555,-592
7356,-1151,-3495,976,6135,1337,-920
7366,-956,-4362,-69,6594,1120,-1238
7376,40,-4594,-127,7519,1214,-1468
7386,722,-3816,472,7656,1322,-1571
7396,872,-2837,1346,7590,1277,-1502
7406,554,-2857,2439,6930,982,-1188
7416,758,-3094,2967,6302,750,-935
7426,1258,-3167,3670,5668,617,-666
7436,1431,-3053,4018,5058,464,-347
7446,1170,-3268,4270,4486,319,-145
7456,795,-2972,4258,3945,249,-31
7466,607,-2644,4585,3570,109,-86
7476,412,-2486,4432,3008,-86,14
7486,101,-2740,3793,2927,-192,69
7496,337,-3100,3483,2943,-268,130
7507,594,-2725,3406,2933,-237,234
7517,478,-2326,3532,2788,-262,347
7527,493,-2044,3503,2449,-299,533
7537,503,-2393,3735,2255,-321,714
7547,532,-2568,3646,2022,-378,826
7557,626,-2296,3560,2005,-400,903
7567,531,-2015,3456,1904,-407,1008
7577,366,-1743,3526,1875,-387,1100
7587,299,-1233,3464,1737,-392,1140
7597,235,-725,3466,1585,-411,1161
7607,149,-817,3488,1495,-443,1214
7617,212,-1096,3276,1393,-477,1239
7627,449,-1208,3334,1342,-485,1202
7637,554,-1173,3403,1305,-460,1184
7647,671,-932,3740,1234,-505,1090
7657,672,-468,3669,1156,-549,1141
7667,485,-302,3717,1110,-558,1159
7677,511,-132,3628,964,-609,1144
7687,555,47,3797,978,-624,1148
7697,578,61,3745,914,-654,1124
7708,688,-127,3758,784,-682,1076
7718,815,-80,3740,661,-655,1011
7728,807,54,3562,685,-614,983
7738,779,25,3543,658,-563,956
7748,815,-1,3634,566,-540,926
7758,890,51,3578,574,-502,874
7768,904,-75,3946,619,-482,824
7778,853,-90,3928,584,-493,814
7788,843,-139,3971,610,-474,726
7798,928,-92,4103,608,-437,637
7808,873,77,4245,593,-406,617
7818,796,258,4329,465,-397,587
7828,808,260,4307,311,-387,555
7838,967,12,4140,181,-366,520
7848,1109,184,3836,22,-379,469
7858,1047,456,3538,-103,-382,427
7868,1204,-254,3494,56,-298,439
7878,1323,-646,3701,156,-173,457
7888,1221,-414,3748,218,-145,454
7898,964,59,3584,229,-182,389
7909,843,157,3652,281,-212,366
7919,820,50,3984,256,-204,361
7929,860,152,4210,179,-220,359
7939,855,317,4262,93,-235,363
7949,988,308,4072,54,-225,363
7959,1089,172,4112,8,-186,346
7969,1133,10,4015,4,-111,359
7979,1041,-139,3911,130,-59,370
7989,884,-95,3913,254,-22,372
7999,809,152,4031,334,-17,333
8009,810,476,4205,330,-11,311
8019,814,758,4331,256,-33,298
8029,863,956,4358,137,-56,280
8039,813,1038,4426,6,-84,243
8049,2334,1819,4708,-378,198,427
8059,2496,1364,3574,-275,168,1214
8069,952,163,3703,172,251,1065
8079,789,672,3417,149,239,1123
8089,404,818,3264,529,335,951
8099,726,1072,3826,710,392,637
8110,627,1186,3976,352,455,403
8120,297,1073,3732,120,586,141
8130,180,1096,3623,-15,275,157
8140,293,1102,3802,-40,58,187
8150,332,962,3927,-87,-31,62
8160,458,694,3991,-180,-141,-22
8170,533,430,3911,-285,-222,120
8180,496,183,3713,-224,-299,188
8190,506,194,3702,-81,-378,224
8200,701,258,3720,128,-442,203
8210,983,636,3804,220,-490,-181
8220,455,1020,3841,315,-299,-119
8230,568,885,3832,146,-453,83
8240,627,834,3819,76,-389,179
8250,525,829,3838,-54,-540,161
8260,911,973,3831,-215,-467,197
8270,921,885,3839,-356,-407,324
8280,1092,685,3772,-445,-315,222
8290,995,344,3560,-364,-204,244
8300,1016,414,3518,-184,-179,235
8310,1086,807,3363,-242,-226,22
8320,805,1077,3354,-231,-43,36
8330,923,1020,3540,-382,0,121
8340,1033,942,3453,-547,142,258
8350,1135,928,3404,-535,169,371
8361,1289,861,3447,-416,215,407
8371,1188,836,3623,-338,269,450
8381,1196,1074,3881,-359,307,427
8391,1352,485,4023,-460,627,500
8401,831,171,3947,-614,491,531
8411,488,-63,3974,-602,395,423
8421,347,-29,4110,-626,288,173
8431,334,91,3880,-614,132,55
8441,384,-84,3536,-369,-220,-57
8451,703,-306,4100,290,-1052,-774
8461,2573,-505,4393,-147,-398,-99
8471,1791,-518,4357,-235,21,576
8481,661,-430,4259,-360,-245,456
8491,331,-422,4288,-406,-639,336
8501,437,-391,4280,-384,-811,387
8511,771,-511,4268,-330,-935,454
8521,1257,-890,4192,-254,-891,563
8531,1678,-1173,4206,-197,-703,650
8541,1920,-1078,3875,-36,-282,706
8551,1462,-744,3840,234,-61,695
8561,677,-62,3932,214,-181,558
8571,664,195,4071,97,-302,493
8581,1039,-164,3998,214,-40,324
8591,1201,-12,3916,216,-27,436
8601,1701,139,3991,319,-24,635
8612,1295,-297,4024,329,213,753
8622,947,-415,4041,315,248,903
8632,980,30,4074,349,393,965
8642,1212,-60,4274,249,470,851
8652,1187,-577,4296,56,787,568
8662,956,-831,4341,-30,1236,532
8672,831,-494,4206,-95,1282,112
8682,-245,-927,3974,-60,1276,13
8692,57,-902,4169,135,565,246
8702,572,-1027,4428,39,716,402
8712,688,-772,4265,-98,1110,390
8722,139,-218,4265,-90,1184,105
8732,54,-161,3864,-57,916,158
8742,245,31,3801,205,413,49
8752,1066,-3914,4624,-21,119,0
8762,-6,779,3050,333,195,-841
8772,182,330,4108,605,-25,227
8782,-81,50,4193,307,-23,327
8792,-322,57,4192,86,-147,431
8802,-578,417,3977,-13,-386,495
8812,-509,714,4086,-164,-479,692
8822,-454,699,4162,-509,-331,939
8832,-612,654,3863,-775,-375,1106
8842,-542,464,3735,-904,-352,1164
8852,-675,204,3460,-892,-557,1253
8863,-484,10,3253,-636,-875,1295
8873,-101,-64,3235,-207,-1199,1142
8883,-92,-399,3628,22,-1342,1072
8893,282,-274,3865,294,-1508,839
8903,547,-407,4293,547,-1657,665
8913,855,-530,4646,786,-1678,608
8923,1174,-726,4945,925,-1659,506
8933,1340,-1056,5057,994,-1390,297
8943,1439,-1026,5160,969,-1100,216
8953,1516,-832,5199,907,-834,215
8963,1615,-659,5156,741,-625,246
8973,1882,-573,4951,633,-432,250
8983,-1128,1061,3979,652,-472,-415
8993,1230,-211,4775,363,-508,-552
9003,1038,-998,4493,95,-782,-61
9013,1508,-1174,4063,201,-743,301
9023,1898,-893,4018,479,-506,287
9033,2063,-318,3862,615,-65,189
9043,1679,-8,3807,572,213,210
9053,1021,115,3599,502,244,367
9063,693,141,3550,548,74,280
9073,738,109,3617,522,-80,274
9083,1057,115,3659,511,-166,304
9093,1398,98,3712,469,-44,407
9103,1341,162,3757,453,112,356
9114,1158,210,3898,404,232,297
9124,909,95,3851,365,217,316
9134,828,-110,3926,388,70,358
9144,895,-121,3956,438,-47,405
9154,1024,-157,3929,483,-83,412
9164,1041,-37,3916,507,-151,376
9174,1124,42,3881,478,-153,343
9184,1161,77,3884,399,-131,293
9194,829,740,4007,148,88,-74
9204,1030,324,3814,15,-104,-166
9215,1235,-620,3765,67,-258,204
9225,1351,-446,3705,343,-359,295
9235,1551,-41,3920,494,-215,109
9245,1548,87,4087,378,-62,-22
9255,1372,37,4170,273,2,7
9265,1363,-49,4143,162,-31,57
9275,1315,-27,3998,146,-118,127
9285,1409,74,3902,189,-115,78
9295,1502,72,3893,182,-86,-4
9306,1558,3,3860,119,-31,-58
9316,1606,-33,3844,73,56,-84
9326,1643,-29,3920,38,109,-37
9336,1486,32,3826,8,128,19
9346,1451,109,3999,-50,77,-39
9356,1405,211,3988,-132,12,-88
9366,1505,196,4003,-181,-18,-139
9376,1592,109,3964,-229,-40,-187
9386,1646,-33,3887,-236,-45,-193
9397,1670,-94,3831,-206,-33,-185
9407,1678,-72,3718,-134,-9,-183
9417,1681,-185,3760,-37,9,-109
9427,1760,54,3795,12,37,-156
9437,1777,61,3838,32,97,-218
9447,1747,-6,3874,-11,103,-235
9457,1721,-31,3845,-65,103,-241
9467,1697,-60,3811,-83,124,-240
9477,1636,23,3773,-97,122,-226
9487,1518,16,3732,-83,96,-181
9498,1496,-35,3742,-63,69,-162
9508,1551,-111,3739,0,38,-169
9518,1728,-88,3824,61,15,-194
9528,1940,-149,3802,-9,147,-159
9538,1785,-171,3788,39,157,-273
9548,1852,-305,3902,31,205,-329
9558,1922,-376,3768,20,263,-271
9568,1725,-263,3817,5,271,-237
9578,1497,12,3828,-36,199,-250
9589,1658,-126,3826,-98,211,-264
9599,1527,-542,3656,-89,215,41
9609,1214,-329,3759,-32,-85,133
9619,1905,-183,3717,-69,5,-156
9629,2091,-231,3673,-98,190,-144
9639,1885,-186,3606,-4,192,-61
9649,1720,3,3676,21,223,-52
9659,1649,190,3612,-1,226,-60
9669,1691,209,3550,-38,233,-57
9680,1749,218,3511,-49,267,-39
9690,1691,127,3481,-29,321,-78
9700,1738,325,3634,6,425,-89
9710,1928,247,3636,-64,555,-39
9720,2000,-1878,4024,-264,546,310
9730,3228,1275,2622,-344,853,-547
9740,736,1626,4139,530,1050,-37
9750,1520,192,3829,-298,737,400
9760,1134,561,3418,-197,452,661
9771,1590,454,3582,-132,325,630
9781,1217,279,3573,-167,316,616
9791,1454,378,3706,-301,280,582
9801,1759,330,3600,-359,386,353
9811,1702,307,3445,-210,459,364
9821,1382,530,3534,-83,418,457
9831,1251,200,3531,-18,294,492
9841,1265,104,3669,134,271,397
9851,1301,320,3820,138,186,394
9861,1053,453,3875,40,96,327
9872,878,391,3883,-37,51,177
9882,828,228,3884,-78,18,-62
9892,1045,-3,3896,-45,15,-287
9902,1081,164,3994,12,92,-481
9912,1204,369,4126,-95,104,-545
9922,1112,355,4049,-260,65,-485
9932,1073,236,3909,-333,-15,-441
9942,1187,-188,3608,-334,0,-426
9952,1079,-94,3656,-305,-159,-295
9963,1391,-230,3592,-163,-270,-184
9973,1414,180,3602,-30,-169,-102
9983,1389,320,3666,85,44,-48
9993,1267,274,3723,56,105,50
10003,1259,-196,3659,73,135,88
10013,1183,-52,3561,287,155,42
10023,1152,546,3758,428,150,-35
10033,1126,628,3843,283,112,77
10043,1298,378,3820,233,94,330
10054,1907,545,3671,255,110,309
10064,1468,336,3989,216,191,546
10074,1407,394,4026,181,265,571
10084,1250,215,3927,215,295,509
10094,1124,-204,3939,369,351,402
10104,891,-214,3983,546,345,186
10114,791,160,4120,553,272,44
10124,741,373,4177,409,230,-43
10134,814,591,4345,153,274,-37
10144,806,669,4430,-181,318,-75
10154,959,370,4252,-413,238,-166
10164,1106,106,4097,-438,175,-254
10174,-6,-219,3886,-375,209,-423
10184,1092,-381,3781,-331,40,-248
10194,1146,-422,3727,-178,-4,-112
10204,1115,-287,3699,1,-7,46
10214,1258,305,3819,105,26,57
10224,1131,158,3866,77,166,148
10234,671,248,3948,102,56,44
10244,1077,-100,3984,108,134,36
10254,947,-166,4000,265,265,-41
10264,849,166,4100,363,304,-101
10274,866,475,4245,293,294,-129
10284,843,558,4235,119,293,-84
10294,777,519,4173,-54,315,-2
10304,703,445,3999,-166,302,128
10314,676,55,4017,-167,201,243
10324,615,-171,3959,-92,194,278
10334,590,-122,4024,36,154,245
10344,564,-17,4100,101,92,166
10354,627,10,4169,142,85,63
10364,649,269,4235,151,55,6
10374,1278,169,4205,-31,9,-108
10384,864,183,4168,-50,85,-66
10394,732,80,4082,-115,124,-40
10404,656,-52,4080,-164,97,80
10414,572,-450,3877,-21,51,189
10424,610,-271,3903,206,-133,286
10434,804,-147,4062,259,-134,301
10444,-348,-343,3808,225,-245,1206
10454,482,-407,3830,355,-597,993
10464,-5288,4129,4164,248,-269,-1740
10474,-2439,2373,4352,-653,-1657,-2827
10484,748,-125,3804,-1409,-2587,-934
10494,1887,-1438,3332,-1195,-2887,226
10504,3654,-1709,3759,-585,-2015,-171
10514,4510,-1318,3898,-239,-487,-415
10524,3360,-532,3821,41,474,-110
10534,1478,-105,3929,282,744,204
10544,239,95,4048,250,616,204
10554,-248,311,3702,239,216,51
10564,435,285,3732,672,-559,-24
10574,1456,-69,4567,520,-448,315
10584,1253,-35,4570,-20,25,23
10594,1066,223,4211,-268,240,-270
10604,835,-1740,4125,-565,466,-740
10614,1587,890,3040,553,-62,-157
10624,816,-5,4453,578,-121,71
10634,1230,-657,3990,379,-105,-136
10644,986,-488,3873,538,72,-49
10654,841,-4,3959,634,37,-70
10664,861,65,3981,512,-25,-71
10674,1012,182,4042,364,68,20
10684,817,-1,3947,240,98,118
10694,605,-350,3831,388,-43,229
10704,834,-247,4020,516,-83,247
10714,532,-445,4015,499,-121,395
10724,552,-357,3977,545,-280,567
10734,613,-96,3863,709,-457,892
10744,1073,469,3852,893,-656,1120
10754,862,1349,3735,1157,-908,1280
10764,603,1257,3911,1489,-1268,1347
10774,1278,616,4155,1276,-1586,1699
10784,1465,490,3869,1007,-1615,1892
10794,1540,135,3897,730,-1146,1612
10804,1187,-104,3744,351,-798,1097
10814,1232,-152,3572,205,-683,554
10824,1461,406,3479,170,-434,31
10834,1382,722,3694,-151,-133,-442
10844,1322,642,3756,-503,13,-762
10854,1411,591,3831,-814,212,-917
10864,1734,679,3853,-1022,564,-1058
10874,2168,909,4058,-1348,1220,-1304
10884,1377,1041,4237,-1707,1794,-1602
10894,28,564,3989,-1533,1553,-1385
10904,117,-146,4099,-1198,945,-808
10914,500,-47,4235,-985,692,-624
10924,634,70,3996,-888,557,-556
10934,790,59,4097,-794,202,-437
10944,921,-28,4146,-588,136,-416
10954,1052,-300,4220,-553,216,-320
10964,1226,-385,4265,-459,293,-207
10974,1203,-322,4264,-397,440,-166
10984,1129,-357,4210,-293,566,-304
10994,981,-250,4175,-222,719,-278
11004,591,-19,4127,-163,690,-109
11014,446,92,4007,-127,502,102
11024,169,91,3339,-230,206,130
11034,2499,200,3172,-44,384,112
11044,-1801,-222,2692,-380,-250,166
11054,-2140,83,4345,-343,-235,173
11064,1503,366,4414,5,143,55
11074,802,186,3820,-52,-93,-44
11084,859,41,3916,-27,-130,-111
11094,1023,105,3865,-5,-97,-73
11104,1025,246,3868,57,-47,-96
11114,1033,280,3914,51,2,-113
11124,919,214,3918,1,36,-40
11134,858,145,3970,-23,14,23
11144,905,125,3973,-52,-3,7
11154,874,145,3944,-99,-13,-30
11165,950,112,3995,-108,-71,-42
11175,1010,-5,4010,-130,-88,-24
11185,1035,-7,4041,-87,-130,-33
11195,1176,-162,4148,-76,-148,-30
11205,1211,-141,4103,-70,-125,-32
11215,1305,-119,4095,-95,-41,-32
11225,1258,-73,4061,-99,38,-40
11235,1135,-112,3987,-112,69,-26
11245,1062,-95,3947,-113,30,21
11255,1074,-157,3865,-106,-11,27
11265,1190,-76,3884,-66,-6,4
11275,1207,78,3866,-79,32,-3
11285,1203,166,3828,-95,6,-12
11295,1171,127,3854,-85,-24,-36
11305,1228,117,3847,-113,-41,-52
11315,1279,135,3762,-149,-49,-55
11325,1187,50,3704,-141,-80,-117
11335,1290,-20,3668,-91,-131,-119
11345,1420,97,3723,-84,-45,-116
11355,1363,52,3731,-174,62,-96
11365,1245,18,3698,-247,117,-74
11375,1144,-37,3680,-315,135,-44
11385,1157,-106,3651,-344,28,-21
11395,1407,-106,3625,-375,100,-110
11405,1253,3,3635,-283,99,-95
11416,1123,13,3644,-246,-8,-93
11426,1183,-190,3726,-270,-71,-92
11436,1302,-227,3757,-272,-74,-103
11446,1327,-81,3753,-284,-73,-106
11456,1351,62,3735,-317,-73,-86
11466,1362,150,3738,-365,-48,-59
11476,1282,48,3795,-411,-22,-88
11486,1157,-237,3873,-401,-42,-179
11496,643,-1183,3798,-413,-58,-230
11506,1221,35,3755,-42,-501,-42
11516,1309,157,4129,-42,-505,-151
11526,1442,-266,4057,-122,-432,-166
11536,1472,-60,4099,-144,-323,-168
11546,1452,239,4124,-229,-244,-184
11556,1539,219,4243,-370,-211,-126
11566,1538,-24,4147,-519,-134,-50
11576,1398,-23,4005,-603,-77,-20
11586,1364,-140,3907,-598,-60,-13
11596,1275,-448,3849,-547,-46,-63
11606,1359,-654,3856,-469,-22,-87
11616,1332,-411,3815,-305,-41,-117
11626,1414,-276,3896,-194,-66,-153
11636,1397,-258,3897,-171,-74,-171
11646,1386,-215,3873,-181,-73,-213
11656,1376,-164,3839,-213,-51,-226
11667,1375,-126,3814,-265,-36,-239
11677,1116,-270,3736,-307,-74,-206
11687,415,-678,3594,-269,-323,161
11697,-520,-1068,2998,44,-1162,1238
11707,1028,1016,3096,771,-2027,3176
11717,2011,140,3888,904,-1910,3325
11727,2193,-1824,3826,683,-1407,2829
11737,2723,111,3733,210,-999,1908
11747,2705,712,3362,-671,-627,1084
11757,2692,731,2977,-1490,-495,735
11767,2746,462,2530,-2018,-366,238
11777,2199,147,2053,-2426,-531,-485
11787,1970,-367,1309,-2719,-706,-1372
11797,1585,-381,511,-3168,-911,-2778
11807,1173,275,3,-3734,-1077,-4629
11817,1348,418,102,-4621,-2186,-6299
11827,-651,5359,-6012,-6268,-1215,-7002
11837,10758,8477,1188,-6448,5653,-12391
11847,4109,2748,-3733,-7547,-1081,-4187
11857,2533,-447,-4795,-6545,-2656,-2131
11867,4611,-824,-3739,-5607,-2071,-4024
11877,5893,529,-2838,-5576,-1496,-5738
11887,5986,1375,-2628,-5931,-1534,-5238
11897,6022,1256,-2930,-6481,-1585,-5147
11907,7624,-1601,-2846,-6472,-1965,-6276
11918,7640,1763,-4052,-7876,-881,-5309
11928,6419,364,-3053,-6391,-275,-6190
11938,8190,-1376,-2823,-7340,-347,-5580
11948,7100,801,-3550,-7611,214,-5188
11958,8301,-1766,-3522,-7178,105,-5555
11968,10276,-4663,-4368,-7311,-30,-4826
11978,10909,-6375,-4164,-6983,401,-4510
11988,11400,-7641,-2483,-6050,1008,-4234
11998,10109,-8179,-432,-5584,1426,-3422
12008,8373,-8026,623,-5979,1479,-2863
12018,7429,-8360,570,-6323,1494,-2418
12028,7172,-9907,516,-6185,1563,-1908
12038,7550,-12677,1306,-5264,1800,-1461
12048,6167,-12830,1545,-4859,1952,-1686
12058,3710,-7653,2726,-4952,1869,-1843
12068,2933,-1155,1934,-4725,2118,-2202
12078,1576,1975,2667,-6334,1780,-2102
12088,1798,994,1111,-8654,1061,-2013
12098,4289,-3948,-226,-8958,1107,-1370
12108,4406,-4838,-489,-7999,1737,-1373
12118,3533,-2662,1225,-7559,2199,-1692
12128,2953,-2312,1544,-7969,2298,-1242
12138,3049,-3007,1383,-8232,2397,-935
12148,2708,-2916,1771,-8502,2274,-1031
12159,2682,-2549,1497,-8462,1954,-1036
12169,2651,-2064,1383,-8354,1501,-894
12179,2782,-1478,662,-8309,943,-909
12189,3735,-1656,-898,-7539,675,-635
12199,3843,-2480,-1440,-7392,296,-286
12209,3771,-2834,-2308,-7347,282,-508
12219,3967,-3283,-2344,-6849,590,-592
12229,3615,-3904,-2133,-5982,971,-595
12239,3136,-3889,-1002,-5122,1411,-673
12249,2504,-2710,42,-5197,1558,-768
12259,2707,-1528,-133,-5227,1519,-1092
12269,2454,-411,-1364,-6487,1200,-732
12279,2832,-267,-2282,-5382,1048,-367
12289,3237,-1733,-2405,-3453,1092,182
12299,3618,-2712,-1114,-3783,1165,642
12309,4165,-2325,-1496,-4284,1757,772
12319,4456,-2187,-1534,-3340,2609,839
12329,4033,-2772,-482,-2783,3165,950
12339,2917,-3528,565,-2718,2956,1030
12349,1891,-3025,1074,-2954,2355,947
12360,1208,-990,599,-2514,2084,641
12370,544,713,1471,-1876,1971,518
12380,71,894,1132,-2411,1375,792
12390,662,-782,826,-2753,882,947
12400,2140,-3339,1607,-2921,931,1070
12410,3564,-4871,2170,-2587,1505,1078
12420,4181,-5402,2971,-1909,1931,1067
12430,4152,-5481,3661,-1201,2059,1044
12440,3824,-5673,4264,-584,1957,1073
12450,3807,-6270,4436,5,1777,1095
12460,4319,-6470,4920,345,1777,1082
12470,4779,-6460,5534,668,1775,1067
12480,5588,-7059,5691,1181,1838,1148
12490,6243,-7500,5546,1489,2060,1315
12500,6272,-7154,5011,1840,2221,1324
12510,5879,-6587,4575,2289,2280,1392
12520,5459,-6116,4051,2684,2419,1720
12530,5085,-5658,3903,2644,2630,1868
12540,5132,-5163,3780,2415,2893,1870
12550,5396,-4750,3713,2339,3102,2074
12561,5498,-4429,3346,2048,3193,2403
12571,5439,-4371,2792,1843,3249,2782
12581,5211,-4648,2152,1723,3222,3176
12591,5238,-5090,1790,1489,3292,3545
12601,5293,-5130,1033,1161,3377,3793
12611,5183,-5164,132,1056,3461,3976
12621,5039,-5245,-837,1106,3501,4238
12631,4913,-4871,-1434,1002,3549,4436
12641,4529,-4386,-1702,893,3540,4443
12651,3913,-3970,-1579,710,3424,4424
12661,3338,-3310,-1589,389,3296,4306
12671,2891,-2438,-1138,-249,3215,4165
12681,2451,-1566,-1392,-1095,3141,4007
12691,1884,-1370,-1989,-1658,3107,3974
12701,1421,-1588,-2970,-1758,3117,4007
12711,910,-2001,-2849,-1525,3254,4012
12721,551,-1783,-2866,-1576,3485,3897
12731,507,-796,-3399,-2094,3834,3767
12741,629,-256,-3882,-2518,4169,3560
12751,475,-698,-3683,-2984,4612,3375
12762,171,-689,-3488,-3538,4908,3119
12772,-272,525,-3423,-4147,5082,3017
12782,-481,1585,-3863,-4596,5253,2824
12792,-245,2400,-3887,-5384,5478,2544
12802,468,3386,-4289,-5780,5571,2229
12812,2008,4550,-5385,-5813,5838,1930
12822,3937,6046,-5844,-5651,6292,1460
12832,4613,7637,-5642,-5285,6765,841
12842,5596,8414,-5911,-4699,7389,-91
12852,7099,9076,-6307,-3910,8035,-1481
12862,8880,10694,-6612,-2820,8623,-3166
12872,12356,12667,-7968,-1513,9012,-5327
12882,18390,15363,-11761,331,8625,-7797
12892,23034,16423,-13566,1771,6179,-10051
12902,27194,14190,-15432,2849,2419,-12826
12912,32554,10686,-13167,5709,-1257,-14814
12922,-32768,8907,-4624,7327,-5639,-17119
12932,-32768,-142,5268,11267,-9299,-17463
12942,-32768,-7210,17204,16237,-13062,-16794
12952,-32768,-15603,24058,21208,-16522,-14669
12963,-32768,-24940,23503,26513,-19497,-11598
12973,-32768,-30340,15362,32677,-19591,-7157
12983,-32768,-23397,-1970,-32768,-17207,-3016
12993,-32768,-17292,-27221,-32768,-13035,3311
13003,17774,32767,8281,24232,-4789,-12154
13013,-32768,-197,-27077,22868,-2735,21426
13023,8877,-10675,-19398,32749,-2095,11223
13033,15743,20315,-29450,-32768,5317,-1126
13043,12750,32767,4708,28601,5966,14724
13053,2815,22818,7067,5405,1732,9125
13063,204,-390,-8327,-941,-255,6716
13073,14181,-8541,-11624,-2728,-483,6954
13083,25731,-3165,-12162,5958,3948,6415
13093,9212,8640,-4614,6346,3759,3946
13103,3930,13508,-201,4464,3589,3259
13113,2597,10829,1806,-549,2308,2214
13123,3892,6906,-166,-3914,708,873
13133,5000,5576,-1380,-5340,-724,-46
13143,4889,6653,-1343,-6462,-1494,-346
13153,4105,7003,-1334,-7092,-1898,-590
13164,3600,6121,-977,-7956,-2112,-803
13174,3528,5265,-953,-8636,-2301,-1051
13184,3625,4199,-755,-8887,-2463,-1125
13194,3748,3099,-712,-8952,-2640,-1061
13204,3989,2050,-610,-8834,-2680,-987
13214,4291,957,-762,-8639,-2618,-934
13224,4248,124,-487,-8423,-2555,-797
13234,4174,-440,231,-8059,-2414,-766
13244,4382,-762,1243,-7807,-2272,-669
13254,4093,-1111,1440,-7499,-2207,-537
13264,4293,-1827,1191,-7019,-2018,-495
13274,5106,-3146,-242,-6175,-1716,-346
13284,5796,-3872,-67,-5319,-929,-325
13294,6121,-3337,176,-4453,-28,-455
13304,5579,-2741,918,-3651,743,-458
13314,5079,-3176,935,-3015,1290,-241
13324,4592,-4202,1076,-2337,1729,-130
13334,4042,-4890,1740,-1556,1838,-366
13344,3392,-5043,1548,-840,1852,-753
13354,3041,-3991,1251,-769,1732,-1091
13365,3034,-2474,599,-813,1597,-1250
13375,3169,-2563,479,-804,1398,-1200
13385,3269,-4311,195,-1055,1126,-1058
13395,3459,-5888,-49,-1190,896,-1197
13405,2985,-6132,-1121,-1039,586,-1388
13415,2426,-5851,-2096,-172,349,-1310
13425,1706,-5782,-1784,486,128,-1017
13435,1541,-5480,-2324,810,-263,-885
13445,2324,-5876,-2705,1073,-355,-659
13455,2672,-5942,-2229,981,-275,-484
13465,2480,-5426,-1674,971,-243,-590
13475,2023,-4920,-1448,847,-333,-358
13485,1780,-4955,-1675,726,-581,-4
13495,1991,-5511,-2635,881,-720,211
13505,2281,-6706,-3312,1560,-655,496
13515,1930,-8215,-3986,3023,-663,459
13525,1891,-8913,-3543,5357,-495,565
13535,1556,-7345,-1502,6690,-326,723
13545,2159,-4831,-1247,7824,-85,740
13555,1956,-4306,1792,8269,88,1493
13566,1272,-3607,1837,7532,54,1447
13576,1373,-2911,3149,6664,216,1320
13586,1211,-2430,3662,5658,240,1076
13596,1322,-2482,3789,4921,300,912
13606,1213,-3220,3190,4418,183,786
13616,1499,-3846,2704,4165,265,738
13626,1563,-3883,2395,3915,308,687
13636,1466,-3388,2261,3554,276,721
13646,1182,-3143,2155,3281,142,843
13656,1344,-3373,1807,3210,-73,779
13666,1439,-3953,1239,3399,-358,296
13676,2148,-3937,1101,3226,-427,327
13686,1251,-3219,1179,2980,-431,360
13696,1371,-2470,1177,2565,-440,39
13706,998,-2188,943,2426,-356,289
13716,1332,-2455,445,3088,-437,-103
13726,2137,-3050,-113,3891,-792,223
13736,2295,-3002,532,4039,-840,706
13746,2006,-2457,-138,4067,-693,701
13756,2064,-1932,456,3916,-559,712
13767,1775,-1656,441,3370,-593,984
13777,1770,-1558,576,3061,-638,1066
13787,1917,-1721,782,2843,-721,1114
13797,2045,-2027,693,2835,-756,1164
13807,2114,-2226,622,2910,-860,1197
13817,2071,-2098,668,2834,-918,1199
13827,2009,-1755,561,2616,-958,1054
13837,1939,-1393,629,2306,-1113,945
13847,1909,-1134,631,1896,-1202,872
13857,1879,-1240,489,1513,-1328,766
13867,1974,-1810,314,1346,-1456,704
13877,2177,-2338,185,1253,-1495,681
13887,2228,-2405,-2,1339,-1462,654
13897,2185,-2417,145,1552,-1426,706
13907,2049,-2439,219,1701,-1418,814
13917,1957,-2447,403,1586,-1439,935
13927,1970,-2310,386,1305,-1432,953
13937,2055,-2151,340,1004,-1370,955
13947,1737,-2273,336,863,-1324,970
13957,1548,-2699,283,828,-1452,1014
13968,1588,-3102,-220,925,-1553,1089
13978,1917,-3350,-296,1180,-1510,1104
13988,2072,-3319,-51,1247,-1385,1177
13998,1918,-3205,428,1023,-1307,1261
14008,2192,-3375,230,857,-1231,1318
14018,2626,-4531,363,919,-1042,1591
14028,3004,-5562,36,784,-769,1820
14038,3341,-6177,-852,872,-532,1890
14048,3753,-6520,-994,1053,-303,2181
14058,3947,-7152,-922,991,-348,2540
14068,4734,-8369,-1321,894,-400,2962
14078,5762,-9397,-1550,823,-492,3477
14088,6369,-9714,-1451,888,-695,4074
14098,6911,-9520,-1398,970,-838,4707
14108,7628,-9079,-1416,924,-971,5181
14118,8049,-8501,-1140,879,-1044,5572
14128,8505,-8040,-670,871,-1092,5868
14138,8805,-7788,-550,756,-1163,6092
14148,9053,-7701,-360,696,-1220,6279
14158,9399,-7744,-286,703,-1338,6463
14169,9821,-7609,-112,787,-1572,6697
14179,9778,-7201,319,955,-1910,6897
14189,9830,-6557,790,1177,-2259,6937
14199,9704,-5894,1309,1342,-2589,6864
14209,9576,-5221,1464,1550,-2921,6677
14219,9468,-4472,1344,1840,-3118,6543
14229,9177,-3455,1198,1989,-3213,6320
14239,8949,-2751,868,2234,-3291,6068
14249,8870,-2107,830,2447,-3230,5944
14259,8667,-796,352,2591,-3042,5660
14269,8241,635,-85,2642,-3000,5360
14279,8060,1907,-347,2377,-2916,5070
14289,7816,2487,-297,2279,-2898,4620
14299,8513,3452,-695,2479,-2919,4340
14309,8396,3941,-538,2991,-2992,4115
14319,8274,4250,-26,3415,-3180,3732
14329,8237,4774,418,3842,-3518,3289
14339,8309,5344,644,4343,-3726,2893
14349,8690,5724,1063,4539,-4018,2413
14359,9317,6167,1480,4408,-4218,1926
14370,10117,6377,1896,4140,-4440,1341
14380,11082,6310,2065,3732,-4567,796
14390,11892,5821,1931,3389,-4605,243
14400,12330,5911,1404,3116,-4493,-229
14410,12172,6383,1013,3272,-4322,-585
14420,11379,7074,761,2959,-4378,-1022
14430,10497,7725,-809,2458,-4700,-1810
14440,10489,8840,-2140,1929,-4983,-3204
14450,11282,11142,-3766,1353,-5664,-5028
14460,12622,14936,-5265,-73,-6085,-6578
14470,15564,16697,-4731,-1965,-6098,-7921
14480,19533,16458,-3722,-3978,-6202,-9510
14490,25026,14399,-2157,-6019,-5984,-11285
14500,31603,10126,48,-7902,-4980,-12999
14510,-32768,3736,1214,-10077,-3979,-14585
14520,-32768,-3439,28,-12905,-2544,-16340
14530,-32768,-9962,-3922,-16167,-789,-17429
14540,-32768,-16004,-9015,-19202,1655,-17457
14550,-32768,-21547,-12372,-21197,4481,-16374
14560,30233,-22931,-8290,-20980,6751,-14982
14571,15613,-21987,-28990,-16178,-1471,-16580
14581,6692,-17649,-12682,-4230,5408,-2446
14591,21216,307,-4051,-10153,2774,-13640
14601,10033,-6164,26895,-8365,5425,-4191
14611,8380,885,845,-13824,3615,-9750
14621,15182,5134,603,-14873,4799,-5324
14631,11768,2428,1388,-16596,4699,-3266
14641,9832,1163,2267,-16697,4786,-2032
14651,10689,1120,-56,-16153,4446,-1192
14661,10413,1160,-419,-14979,3982,186
14671,10374,-1024,-1369,-12680,3510,1766
14681,9464,-2057,-271,-9402,3429,2811
14691,7944,857,1010,-7189,3236,2981
14701,7108,1612,462,-5506,2961,3307
14711,6942,704,480,-3667,2801,3616
14721,6668,1651,-190,-2288,2834,3400
14731,6185,1821,183,-1997,2469,3128
14741,5252,769,-153,-1144,2346,3054
14751,5051,813,-325,-358,2323,2880
14761,4970,793,-574,239,2190,2800
14772,4616,793,-864,732,2066,2675
14782,4181,1021,-921,1133,1937,2503
14792,3847,994,-1098,1358,1825,2328
14802,3563,955,-1199,1490,1694,2078
14812,3232,1068,-1216,1457,1563,1830
14822,2958,1096,-1165,1180,1415,1525
14832,2848,973,-1336,925,1318,1235
14842,2719,627,-1409,951,1152,946
14852,2607,243,-1868,971,910,704
14862,2422,-8,-1577,836,593,490
14872,2209,-31,-1497,434,178,286
14882,2339,142,-1241,-31,-168,125
14892,2126,-93,-1198,-177,-374,31
14902,1799,-658,-1462,-206,-438,-120
14912,1866,-1085,-1597,-457,-626,29
14922,2042,-1256,-2005,-535,-864,-127
14932,2195,-1347,-1792,-487,-986,-314
14942,2307,-1765,-2138,19,-965,-417
14952,2256,-1753,-1539,173,-971,-385
14962,2335,-1480,-1700,235,-938,-323
14973,2383,-1292,-1748,-327,-844,-406
14983,2787,-1402,-1763,-807,-714,-576
14993,3040,-1650,-1631,-1264,-364,-690
15003,3003,-1719,-1575,-1576,73,-865
15013,2731,-1991,-1487,-1636,372,-985
15023,2450,-2456,-1108,-1576,539,-1159
15033,2432,-2900,-257,-1600,574,-1388
15043,2585,-3370,224,-1714,542,-1644
15053,2517,-3976,570,-1869,486,-1859
15063,2082,-4671,625,-1927,376,-2126
15073,1784,-5159,482,-1700,382,-2236
15083,1545,-5509,911,-1328,645,-2190
15093,1097,-5709,1340,-1237,938,-2188
15103,648,-5889,1711,-1395,1196,-2206
15113,264,-6380,2020,-1407,1505,-2256
15123,-152,-6946,2331,-1360,1874,-2286
15133,-425,-6973,2488,-1252,2176,-2278
15143,-510,-6753,2845,-1068,2454,-2211
15153,-874,-6578,3121,-950,2596,-2170
15163,-1006,-6573,3287,-623,2674,-2104
15173,-943,-6770,3156,-281,2648,-2026
15184,-580,-6857,3132,-112,2630,-1953
15194,-262,-7053,2899,183,2555,-1862
15204,-37,-7683,3053,551,2578,-1689
15214,104,-7791,3074,819,2669,-1556
15224,273,-7544,2879,944,2808,-1436
15234,499,-7426,2792,893,3014,-1340
15244,388,-7598,2353,973,3117,-1291
15254,262,-7515,1884,1187,3268,-1153
15264,486,-6955,1705,1167,3311,-1090
15274,546,-6950,1720,1072,3276,-1017
15284,572,-7088,1749,907,3218,-986
15294,838,-6957,1473,826,3184,-895
15304,956,-6970,1309,824,3206,-721
15314,904,-7156,1125,849,3222,-552
15324,909,-7357,880,945,3251,-374
15334,891,-7148,675,970,3294,-199
15344,798,-6611,545,919,3300,-46
15354,666,-6155,342,953,3262,120
15364,592,-5776,161,988,3212,271
15374,637,-5419,-29,917,3162,355
15384,779,-5357,-103,977,3217,443
15394,725,-5239,-170,943,3273,523
15404,697,-5003,-268,935,3329,594
15414,654,-4550,-400,774,3361,716
15424,505,-4388,-427,631,3357,809
15435,336,-4367,-540,471,3366,927
15445,151,-4170,-931,206,3371,956
15455,55,-4018,-1323,-56,3350,1005
15465,19,-3920,-1830,-407,3321,1105
15475,-17,-4010,-2306,-585,3266,1201
15485,-140,-4180,-2370,-653,3244,1338
15495,-401,-4034,-2581,-836,3200,1453
15505,-601,-3895,-2768,-825,3167,1515
15515,-762,-3557,-2897,-1011,3188,1619
15525,-1090,-3066,-3052,-1338,3191,1658
15535,-1355,-2604,-3325,-1689,3182,1695
15545,-1494,-2371,-3683,-2002,3189,1699
15555,-1570,-2175,-3963,-2245,3209,1703
15565,-1574,-1839,-4132,-2442,3176,1686
15575,-1590,-1421,-4207,-2642,3120,1639
15585,-1675,-1090,-4562,-2952,3117,1555
15595,-1444,-801,-5344,-3358,3190,1392
15605,-674,-746,-6625,-3474,3497,1298
15615,343,-501,-7313,-3675,4088,1218
15625,517,98,-7250,-3971,4433,1095
15635,688,503,-7219,-4236,4483,837
15645,1628,230,-7420,-4146,4502,473
15655,2232,-109,-7292,-3980,4393,-13
15665,2063,408,-6737,-3643,4168,-462
15675,2530,1631,-6659,-3025,3960,-1010
15686,4763,2742,-7500,-2679,4164,-1542
15696,6749,4573,-8495,-2846,4455,-2202
15706,8014,6117,-9392,-2651,4588,-2923
15716,9758,6691,-11132,-2587,4287,-4095
15726,11744,7725,-13036,-2682,3823,-5531
15736,13949,8564,-15705,-1987,3065,-6789
15746,15992,6962,-18482,-806,1673,-8143
15756,17890,6142,-20119,643,-367,-9698
15766,20256,3892,-19411,1987,-2913,-11101
15776,23544,810,-15836,3121,-5693,-12431
15786,26464,-2728,-9969,4910,-8624,-13201
15796,28071,-5817,-1468,7930,-11733,-13286
15806,29131,-7397,8345,10789,-14714,-12744
15816,29355,-9332,16727,14060,-16965,-11944
15826,28335,-11302,21220,17910,-18611,-10547
15836,26380,-13436,18800,20853,-17678,-8487
15846,-32768,-12177,15238,22808,-8544,-5160
15856,24659,31325,19670,16995,-9859,-9963
15866,20688,11407,20913,16395,-11507,2034
15876,7090,-4595,16427,9918,-10493,3036
15886,4552,-6339,-7493,12586,-8687,2231
15896,9844,-5634,-13862,9252,-8453,1674
15906,14583,-1688,-13563,8912,-6574,799
15916,11693,1466,-4370,8325,-5716,1783
15926,10907,-2971,-11389,7203,-6987,3389
15937,14546,-3539,-8028,9125,-5435,3474
15947,15403,614,-2762,9118,-4078,3733
15957,12940,4922,343,7984,-3004,4379
15967,10366,6632,3282,6472,-2427,4670
15977,9078,6443,4532,4319,-2087,4573
15987,8390,5561,4698,2277,-1750,4514
15997,7762,4640,5064,421,-1306,4180
16007,6723,3731,4680,-965,-1210,3858
16017,5745,3755,4778,-1937,-1163,3435
16027,5099,3555,5270,-2793,-1248,3014
16037,4537,2928,5485,-3473,-1517,2663
16047,4293,2372,5288,-3933,-1824,2168
16057,4421,2174,5092,-4204,-2041,1677
16067,4558,2001,4747,-4319,-2160,1487
16077,4588,1616,4051,-4122,-2227,1508
16087,4940,826,3298,-3676,-2090,1542
16097,5556,-389,2960,-3144,-1736,1550
16107,5788,-1519,3517,-2928,-1131,1337
16117,5267,-2014,3832,-2022,-692,968
16127,4388,-1753,4430,-970,-548,761
16137,3818,-954,4785,-510,-458,553
16147,3381,-413,5190,-207,-321,343
16157,2917,-211,5158,-447,-251,147
16167,2791,-372,4811,-816,-178,-161
16177,3069,-1048,4714,-1158,-35,-469
16188,3115,-1781,4335,-1049,244,-672
16198,3064,-1679,3921,-1173,573,-797
16208,3171,-1064,3156,-858,931,-871
16218,3404,-1162,3546,-637,1373,-748
16228,3568,-2154,3955,-446,1820,-535
16238,3702,-3554,4086,-536,2192,-395
16248,3641,-4421,2166,-620,2438,-373
16258,3998,-4925,1017,-100,2819,-316
16268,4074,-5641,801,700,3432,-295
16278,3916,-6388,1125,1389,3823,-480
16288,3248,-6430,944,1766,3699,-744
16298,2574,-5534,693,1967,3449,-1023
16308,2245,-4286,634,1803,3276,-1248
16318,1848,-3226,628,1440,3223,-1387
16328,1635,-3046,717,389,3056,-1467
16338,1821,-3727,-79,-352,2930,-1477
16348,2146,-4807,-414,-518,2966,-1383
16358,2048,-5256,-434,-362,3014,-1271
16368,1672,-5194,-416,-51,2994,-1150
16378,2013,-5118,-5,193,3080,-984
16388,2066,-5194,666,-169,3137,-858
16398,2099,-4918,867,-482,3088,-982
16408,1976,-4946,1064,-456,3052,-899
16418,2038,-4949,994,-625,3048,-795
16428,2361,-4938,1079,-855,3057,-753
16439,2318,-5167,1272,-1213,3114,-648
16449,2237,-5539,1375,-1496,3212,-522
16459,2161,-5856,1729,-1639,3281,-327
16469,2001,-6100,1857,-1686,3298,-153
16479,2060,-6198,1839,-1559,3324,52
16489,1939,-6197,2023,-1247,3344,313
16499,1893,-5816,1832,-1157,3400,487
16509,1953,-5459,1667,-1138,3510,695
16519,1825,-5364,1522,-976,3633,989
16529,1514,-5383,1756,-871,3761,1236
16539,1350,-5232,1657,-893,3823,1326
16549,1345,-5223,1564,-857,3891,1481
16559,1256,-5356,1495,-799,3926,1604
16569,1279,-5301,1171,-649,3991,1759
16579,1207,-5401,706,-450,4057,2025
16589,1147,-5684,481,-113,4196,2312
16599,791,-5539,744,-164,4309,2521
16609,484,-5353,694,-236,4376,2694
16619,269,-5345,566,-248,4431,2966
16629,178,-5181,270,-300,4514,3216
16639,39,-5046,126,-332,4544,3421
16649,-61,-4840,-403,-462,4541,3570
16659,-161,-4603,-890,-430,4575,3722
16669,-394,-4482,-1257,-367,4565,3809
16679,-564,-4150,-1457,-242,4551,3827
16690,-798,-3578,-1534,-201,4532,3865
16700,-816,-3010,-1855,-282,4524,3831
16710,-896,-2782,-1912,-338,4561,3880
16720,-721,-2148,-2403,-488,4623,3823
16730,-688,-1788,-2470,-474,4630,3735
16740,-757,-1613,-2421,-802,4570,3530
16750,-665,-2541,-2899,-1074,4870,3848
16760,-415,-3120,-3559,-1402,5058,3708
16770,-172,-2010,-4006,-1678,5145,3293
16780,-436,-624,-4092,-2261,5151,3007
16790,-17,-63,-4738,-3266,5360,2651
16800,485,-687,-5428,-3708,5416,2398
16810,1031,-1277,-5627,-3442,5351,2338
16820,1696,-128,-6060,-3069,5240,2317
16830,1964,1581,-6323,-3012,5111,2164
16840,2568,2216,-7120,-3019,4893,1934
16850,3280,2924,-7974,-3063,4736,1543
16860,4275,3946,-8362,-2979,4581,1016
16870,5175,4833,-8977,-2685,4444,341
16880,6419,6486,-9632,-2349,4125,-569
16890,7701,8452,-9983,-1773,3558,-1882
16900,10771,10277,-12448,-652,3025,-3496
16910,14206,11440,-14769,206,1983,-6008
16920,16771,13190,-14266,-647,160,-9281
16930,18147,9086,-12367,-565,-2209,-11778
16941,18991,4975,-9275,1777,-4848,-13161
16951,19727,599,-4872,4077,-7782,-13618
16961,18990,-4760,1677,5675,-11023,-13804
16971,18981,-9375,6986,5985,-13616,-13992
16981,19188,-15138,12886,5725,-15138,-13871
16991,16954,-17739,17596,4486,-14933,-12867
17001,13792,-19203,19141,3155,-12681,-11038
17011,15659,-4376,9474,1374,-9956,-10948
17021,28266,-2659,16462,-4799,-9941,-10884
17031,10398,-32768,17620,-168,-8283,-3374
17041,-156,-17111,15526,28,-5282,-6098
17051,7972,-5980,-709,-4895,-5483,-7011
17061,7836,-6921,-1854,-7094,-4210,-5275
17071,3163,-8734,-3205,-4615,-3850,-5367
17081,2959,-3732,-5662,-1993,-3395,-5583
17091,4673,169,-4455,-140,-3161,-4791
17101,4815,177,-2519,192,-3121,-4018
17111,4341,-1394,-1262,501,-2944,-3235
17121,4469,-2667,795,1194,-2692,-2810
17131,4141,-3425,2686,1336,-2540,-2340
17141,3822,-4230,3488,1079,-2321,-2041
17151,3669,-5108,3775,701,-2064,-1848
17161,3480,-5677,3603,388,-1867,-1795
17171,3356,-5839,2903,244,-1771,-1716
17182,3337,-6011,2566,478,-1690,-1517
17192,3159,-6196,2490,706,-1693,-1309
17202,2977,-6107,2674,948,-1656,-1189
17212,2819,-5691,2730,980,-1626,-1137
17222,2831,-5514,2775,1097,-1381,-1038
17232,2906,-5638,2877,1186,-1186,-896
17242,2780,-5892,2903,1263,-977,-835
17252,3150,-6491,2742,1592,-804,-1320
17262,3941,-6984,2250,1822,-295,-1623
17272,3931,-7527,1685,2052,412,-1773
17282,3233,-7429,1451,1975,1118,-2148
17292,3283,-5912,2406,577,1502,-2501
17302,2777,-4420,3090,-945,2085,-2950
17312,2005,-3625,2896,-1876,2208,-3007
17322,1717,-3718,1704,-2190,1910,-2425
17332,1892,-4284,21,-1557,1479,-1459
17342,2458,-4859,-2688,800,1518,-915
17353,3463,-6029,-385,3452,1752,-341
17363,3750,-6720,222,2742,2104,127
17373,3457,-5926,-991,2465,2480,513
17383,2832,-4869,-558,2040,2800,1032
17393,2363,-4783,380,1155,3272,1486
17403,1765,-6509,1316,385,3369,1578
17413,1224,-7512,139,356,2832,1323
17423,1497,-5945,-1943,2387,2501,821
17433,1988,-3720,-2538,3396,2164,632
17443,3172,-2338,-3780,3074,1999,537
17453,4416,-3026,-3302,2814,2266,529
17463,4545,-4597,-2791,2019,2429,321
17473,4663,-4979,-1989,1464,2679,92
17483,4435,-5475,-904,1396,2883,284
17493,4092,-5739,-646,1225,2890,583
17503,4463,-5545,-260,1080,3013,875
17514,4554,-5268,-199,858,3052,1173
17524,4392,-4918,-478,627,3003,1399
17534,4587,-4457,-544,211,3036,1587
17544,4506,-4570,-561,69,3012,1765
17554,4337,-5120,-458,176,3017,1925
17564,4244,-5089,-456,353,3062,2007
17574,3970,-4473,-134,388,3127,2010
17584,3618,-4059,29,334,3196,2075
17594,3499,-4112,61,167,3346,2240
17604,3495,-4271,30,169,3484,2391
17614,3319,-4565,162,176,3545,2537
17624,3249,-4700,-98,135,3675,2632
17634,3186,-4744,-298,181,3839,2697
17644,2998,-4849,-287,161,3961,2815
17654,2900,-5126,-148,69,4044,2970
17664,2928,-5373,-11,-118,4108,3156
17674,2845,-5551,-264,-119,4066,3407
17685,2811,-5811,-306,75,4114,3715
17695,2713,-5560,-475,9,4191,3836
17705,2592,-4942,-826,-119,4293,3788
17715,2469,-4680,-1138,-131,4461,3884
17725,2159,-4462,-1250,-127,4604,4020
17735,1715,-4049,-1487,-50,4717,4110
17745,1480,-3569,-1615,-156,4793,4139
17755,1313,-3151,-2187,-411,4850,4156
17765,937,-3024,-2604,-511,4988,4249
17775,448,-2683,-3051,-752,5053,4134
17785,231,-2341,-3578,-915,5078,4046
17795,-178,-2317,-4030,-1040,5021,4028
17805,-362,-2393,-4380,-1039,4982,3936
17815,-695,-1907,-4625,-1074,5023,3853
17825,-927,-1174,-5102,-1206,5072,3749
17835,-979,-779,-5466,-1353,5146,3518
17845,-1028,-370,-5664,-1784,5277,3235
17856,-1116,-125,-6060,-2320,5472,3226
17866,-721,-158,-6722,-2879,5497,3043
17876,-83,-101,-7305,-3349,5537,2866
17886,580,770,-8197,-3844,5412,2433
17896,1529,1791,-9276,-4183,5403,2013
17906,2747,2619,-10250,-4372,5422,1673
17916,4076,3452,-11018,-4795,5393,1176
17926,5277,4085,-11092,-5054,5223,575
17936,6504,4763,-10931,-5275,4991,-54
17946,7497,6459,-10973,-5400,4489,-938
17956,8227,8460,-10890,-5155,3774,-2121
17966,9797,9320,-11102,-4178,3196,-3170
17976,11825,9889,-11489,-2222,2935,-4191
17986,14594,11334,-12288,133,2782,-5559
17996,17333,12517,-13124,1253,1816,-8264
18006,19754,9747,-12704,985,161,-12151
18017,21934,8058,-10149,401,-1055,-16250
18027,23392,6008,-4368,2208,-2916,-18538
18037,24458,1666,1067,6842,-5690,-18434
18047,26747,-3343,5758,11309,-8860,-16544
18057,31096,-13702,10576,12089,-12230,-15006
18067,31936,-25818,16238,10232,-15102,-14276
18077,31789,-32768,19032,6332,-16337,-13429
18087,27405,-32768,26906,2963,-16291,-10611
18097,31613,-28853,-27400,2157,-8816,-6040
18107,-32768,-11172,8870,3782,-2232,-3861
18117,2749,-29110,32767,848,-12565,2805
18127,-3816,2187,-1379,-15870,-7320,-2181
18137,495,10222,-5295,-9313,-4294,-6129
18147,8239,5181,-8005,-10152,-3939,-2986
18157,6817,6214,-8378,-6407,-2788,-3734
18167,8174,2652,-6988,-4881,-4969,-4001
18177,7613,-1842,-5536,-3517,-4369,-2489
18188,8159,-6689,-2306,-3018,-4401,-2666
18198,7418,-8999,-2108,-3324,-5015,-2367
18208,8063,-9593,-763,-2242,-4597,-1836
18218,8278,-9915,-100,-2139,-4173,-1433
18228,7441,-10496,-555,-2050,-3233,-1306
18238,5660,-10476,-135,-1414,-2208,-1139
18248,4061,-7961,-8,-1609,-1460,-1497
18258,3847,-5516,1264,-811,-686,-1414
18268,2773,-4407,1570,98,-744,-1376
18278,1895,-3937,1272,-336,-915,-1239
18288,1045,-3826,1941,-797,-743,-841
18298,823,-5219,2128,1309,-663,-1808
18308,757,-6093,2510,2184,-289,-2190
18318,838,-5485,2718,2221,-540,-1949
18328,1074,-3951,2570,2819,-76,-2246
18338,1273,-2344,2771,3091,385,-2602
18348,1331,-1410,2837,2773,337,-2851
18358,1924,-1655,2643,2181,259,-3135
18368,2339,-2666,2488,1919,331,-3279
18378,3002,-3748,2362,1635,377,-3575
18389,3739,-4453,2093,1451,462,-3729
18399,3786,-4931,1778,1335,513,-3635
18409,3697,-5431,1656,1314,518,-3655
18419,3534,-5743,1847,1218,666,-3565
18429,3727,-5631,1244,913,898,-3518
18439,4277,-5384,799,1110,1221,-3274
18449,4734,-5339,226,1240,1646,-2833
18459,5019,-5566,57,1520,2067,-2612
18469,4845,-5746,-568,1906,2302,-2529
18479,4648,-5626,-1010,2249,2517,-2313
18489,4585,-5116,-1344,2282,2735,-2102
18499,4694,-4775,-1444,1970,2829,-1989
18509,4792,-5295,-1577,1640,2779,-1875
18519,4671,-6916,-1668,1835,2735,-1626
18529,4354,-8311,-1833,2482,2722,-1421
18539,4269,-7908,-1895,3105,2868,-1303
18549,3957,-6256,-2254,3510,2963,-1215
18559,3837,-5470,-2826,3690,2874,-1047
18569,3950,-6796,-2997,4078,2802,-876
18579,3878,-7869,-3467,4411,2818,-934
18590,3457,-6876,-3359,5065,2836,-995
18600,2653,-4280,-3177,5338,2622,-1053
18610,2249,-3351,-2244,5554,2376,-1001
18620,2423,-3975,-1752,5192,2031,-1039
18630,2558,-4447,-1432,4931,1810,-1073
18640,2592,-4442,-1050,4683,1693,-1064
18650,2523,-4341,-869,4454,1612,-971
18660,2523,-4400,-538,4241,1604,-815
18670,2370,-4544,-420,4085,1564,-726
18680,2512,-4357,-426,4060,1546,-637
18690,2564,-4307,-408,4065,1511,-586
18700,2471,-4344,-177,3920,1435,-591
18710,2514,-4012,-129,3706,1357,-544
18720,2456,-3856,218,3561,1310,-457
18730,2439,-3855,515,3438,1247,-366
18740,2292,-4118,995,3519,1237,-281
18750,2312,-3944,1229,3671,1211,-139
18760,2344,-3354,1485,3662,1207,-58
18770,2322,-3430,1531,3639,1123,21
18780,2539,-3543,1390,3695,1048,65
18791,2543,-3778,1406,4095,927,128
18801,2529,-3583,1531,4314,864,159
18811,2537,-2809,1584,4238,773,131
18821,2475,-2428,2018,4014,649,172
18831,2368,-2513,2173,3884,575,225
18841,2266,-2759,2303,3903,412,263
18851,2132,-2895,2529,3899,330,270
18861,2008,-2985,2815,3851,176,205
18871,1942,-3029,3050,3795,80,160
18881,1812,-2880,3638,3405,-50,76
18891,1925,-2157,3378,2776,-49,-30
18901,1818,-1831,3365,2238,-125,-19
18911,1789,-1896,3345,1869,-123,37
18921,1864,-1722,3442,1599,-114,105
18931,1819,-1686,3440,1361,-116,177
18941,2024,-1752,3023,1079,-8,176
18951,2088,-2224,2904,1193,44,231
18961,2084,-2139,3210,1242,144,260
18971,2039,-1645,3703,1169,186,246
18981,1964,-1341,3918,979,168,214
18992,1831,-1346,3966,869,107,224
19002,1763,-1472,4081,857,34,209
19012,1750,-1502,4145,775,-31,163
19022,1894,-1244,3943,709,-54,137
19032,1956,-850,3834,558,-17,220
19042,1962,-274,3308,374,63,273
19052,1876,-385,3195,420,139,418
19062,1643,-1220,3207,655,218,616
19072,1587,-1580,3333,1073,291,728
19082,1605,-927,3659,1241,291,638
19092,1442,-335,3876,1217,268,492
19102,1448,2,3883,1085,198,475
19112,1302,-116,4165,941,123,481
19122,1274,-226,4083,748,47,383
19132,1406,114,3762,509,-15,226
19142,1611,591,3495,365,-11,213
19152,1492,227,3507,360,70,354
19162,1262,-1139,2634,447,170,427
19172,1796,-1239,3260,446,385,299
19182,2216,77,4098,547,778,126
19192,1566,587,5018,472,989,172
19203,1105,640,5240,286,907,56
19213,1001,336,5174,166,772,-1
19223,835,-190,4573,64,615,-59
19233,888,-398,4188,-93,467,-188
19243,1002,-331,3787,-164,394,-271
19253,1102,-280,3617,-267,402,-312
19263,1185,-268,3262,-356,392,-336
19273,1420,-195,3104,-355,458,-301
19283,1567,-297,3061,-212,572,-222
19293,1593,-601,3280,-50,678,-131
19303,1529,-742,3490,113,771,-79
19313,1421,-637,3717,207,817,-87
19323,1204,-441,3949,207,804,-91
19333,1080,-333,4133,143,743,-109
19343,1086,-274,4140,94,681,-131
19353,1112,-339,4161,64,642,-139
19363,1138,-211,4032,-19,621,-154
19373,1116,-102,3904,-62,613,-150
19383,1021,-113,3664,-102,614,-141
19393,947,-224,3454,-25,623,-113
19403,889,-395,3430,109,627,-81
19413,907,-325,3518,252,627,-66
19423,870,-194,3669,284,604,-56
19433,831,-4,3633,248,566,-63
19443,843,24,3763,243,537,-37
19454,852,40,3799,208,518,-12
19464,947,62,3802,176,536,-7
19474,881,-1,3708,187,548,21
19484,746,-55,3745,212,537,27
19494,646,-14,3847,237,498,7
19504,597,17,3957,200,439,-15
19514,627,30,3920,140,372,-48
19524,654,71,3998,63,308,-77
19534,625,112,4070,-57,254,-91
19544,644,174,3970,-173,222,-99
19554,647,323,3846,-241,211,-86
19564,585,440,3665,-286,211,-55
19574,484,382,3523,-288,209,-8
19584,466,375,3371,-223,209,43
19594,439,408,3307,-166,186,78
19604,412,498,3187,-137,145,111
19614,416,593,3115,-136,88,125
19624,408,682,3011,-164,9,133
19634,393,721,3010,-228,-92,105
19644,485,642,3101,-342,-233,62
19654,651,551,3223,-491,-381,-15
19664,870,499,3458,-642,-531,-99
19674,973,448,3630,-775,-692,-167
19684,1014,432,3582,-911,-830,-244
19694,1106,792,3471,-1115,-973,-342
19705,1181,1182,3097,-1378,-1049,-361
19715,1219,1212,2779,-1522,-1083,-339
19725,1288,871,2560,-1593,-1128,-351
19735,1435,421,2342,-1509,-1157,-468
19745,1738,364,2442,-1254,-1150,-346
19755,1643,7,2793,-1075,-1117,-253
19765,1574,-156,2946,-1012,-1159,-245
19775,1679,-44,3082,-910,-1234,-264
19785,1834,-7,3300,-878,-1309,-280
19795,1926,-16,3316,-934,-1374,-249
19805,1941,42,3462,-1024,-1430,-224
19815,2153,219,3340,-1191,-1504,-297
19825,2405,175,3191,-1225,-1517,-354
19835,2548,121,3187,-1286,-1515,-371
19845,2620,-112,3123,-1257,-1473,-389
19855,2710,-435,3340,-1209,-1441,-410
19865,2810,-519,3326,-1229,-1399,-509
19875,2823,-374,3354,-1294,-1356,-600
19885,2797,-157,3306,-1509,-1347,-640
19895,2757,-22,3308,-1744,-1323,-671
19905,2808,132,3160,-2118,-1327,-746
19915,2860,310,2988,-2428,-1317,-877
19925,2961,461,2761,-2587,-1258,-1003
19935,3060,403,2854,-2609,-1221,-1077
19945,3245,153,2939,-2604,-1131,-1162
19956,3476,-38,3114,-2789,-1039,-1273
19966,3776,-49,3024,-3150,-958,-1406
19976,4030,-5,2774,-3446,-806,-1532
19986,4059,-75,2681,-3609,-636,-1623
19996,3936,-314,2589,-3785,-516,-1680
20006,3785,-759,2277,-3694,-432,-1720
20016,3732,-1137,2142,-3576,-408,-1817
20026,3828,-1239,2090,-3522,-370,-1892
20036,3834,-1202,2180,-3492,-299,-1893
20046,3787,-1277,2242,-3499,-250,-1846
20056,3792,-1543,2114,-3556,-235,-1771
20066,3857,-1992,2126,-3624,-192,-1681
20076,3900,-2505,1913,-3645,-139,-1590
20086,3909,-3043,1767,-3477,-108,-1547
20096,3982,-3562,1632,-3062,-52,-1451
20106,3948,-3947,1731,-2447,39,-1274
20116,3724,-4103,2057,-1927,118,-1020
20126,3359,-4042,2223,-1447,189,-838
20136,3087,-3909,2420,-958,332,-784
20146,2694,-3308,3240,-1093,480,-804
20156,2262,-2205,3036,-1383,541,-954
20166,2103,-1550,3086,-1463,523,-960
20176,2195,-1834,2616,-1647,370,-841
20186,2354,-3077,1784,-1441,235,-728
20197,2400,-3777,1807,-1106,302,-667
20207,2306,-3471,2081,-988,458,-733
20217,2276,-3006,2260,-1044,536,-776
20227,2241,-2632,2375,-1176,573,-715
20237,2217,-2472,2452,-1277,587,-621
20247,2124,-2282,2438,-1403,561,-530
20257,2020,-2139,2438,-1516,512,-456
20267,1875,-1915,2523,-1821,465,-402
20277,1763,-1678,2350,-2239,367,-399
20287,1715,-1859,2053,-2373,156,-336
20297,1989,-2410,1821,-2051,32,-198
20307,2240,-2922,1848,-1721,-34,-111
20317,2419,-3070,1672,-1394,-76,-177
20327,2662,-3083,1646,-965,-76,-250
20337,2854,-2877,1740,-712,-71,-244
20347,2943,-2597,1847,-604,-54,-232
20357,3091,-2657,1908,-507,-62,-214
20367,3232,-2860,1838,-492,-72,-154
20377,3398,-2757,1808,-563,-63,-163
20387,3529,-2573,1789,-593,-19,-168
20398,3514,-2575,1718,-596,-30,-105
20408,3432,-2642,1618,-462,-83,8
20418,3333,-2682,1557,-302,-159,112
20428,3251,-2613,1476,-172,-246,169
20438,3236,-2460,1384,-70,-305,210
20448,3220,-2242,1293,95,-349,238
20458,3192,-2135,1360,314,-398,294
20468,3185,-2027,1416,403,-463,343
20478,3368,-1811,1321,421,-516,327
20488,3648,-1683,1291,434,-508,297
20498,3858,-1728,1324,465,-484,257
20508,4027,-1768,1269,488,-469,192
20518,4167,-1742,1204,561,-426,128
20528,4246,-1824,1233,642,-366,73
20538,4200,-1819,1148,698,-300,5
20548,4188,-1668,1085,696,-223,-54
20558,4128,-1573,1074,635,-158,-77
20568,4043,-1650,1029,622,-109,-107
20578,3911,-1769,961,626,-89,-129
20588,3801,-1744,922,632,-92,-140
20599,3716,-1618,814,702,-88,-159
20609,3644,-1575,854,803,-124,-167
20619,3576,-1583,896,841,-188,-172
20629,3549,-1435,843,770,-250,-203
20639,3614,-1293,798,692,-278,-235
20649,3664,-1324,851,603,-296,-263
20659,3644,-1372,839,476,-342,-300
20669,3651,-1422,778,421,-385,-345
20679,3738,-1505,753,398,-400,-383
20689,3838,-1588,749,363,-377,-414
20699,3900,-1684,767,441,-371,-434
20709,3828,-1739,870,506,-371,-435
20719,3838,-1656,856,464,-363,-446
20729,3888,-1662,830,442,-333,-446
20739,3898,-1731,819,393,-280,-454
20749,3839,-1785,828,446,-216,-459
20759,3726,-1792,892,470,-175,-444
20769,3635,-1724,892,392,-156,-437
20779,3621,-1648,907,323,-119,-439
20789,3562,-1676,1033,213,-64,-419
20800,3492,-1784,955,100,-25,-391
20810,3428,-1887,1001,-18,11,-366
20820,3352,-1860,1105,-129,38,-344
20830,3250,-1830,1317,-175,66,-289
20840,3133,-1910,1458,-162,89,-200
20850,3066,-2064,1763,-124,110,-112
20860,3034,-2233,1972,-33,145,-30
20870,2970,-2308,2148,95,244,56
20880,2909,-2314,2550,131,352,145
20890,2907,-2231,2817,131,454,235
20900,2912,-2291,3070,329,602,378
20910,2903,-2435,3177,496,724,536
20920,2993,-2448,3228,667,887,626
20930,3143,-2371,3284,898,1048,708
20940,3224,-2227,3215,1226,1189,807
20950,3346,-2082,3093,1524,1273,902
20960,3701,-1896,2993,1676,1348,895
20970,4195,-1729,2814,1692,1419,779
20980,4602,-1577,2541,1646,1434,636
20990,4951,-1367,2232,1504,1365,456
21001,5315,-566,1847,1115,1201,172
21011,5387,520,814,953,955,-226
21021,5664,1192,648,436,711,-658
21031,6524,1451,-720,-28,401,-1292
21041,7951,1174,-1960,-290,217,-1772
21051,9211,996,-2630,-920,151,-2089
21061,9738,1144,-2859,-1430,50,-2249
21071,8912,1202,-2914,-1483,-336,-1901
21081,7485,1175,-2539,-1649,-613,-1620
21091,6573,824,-2145,-1697,-871,-1652
21101,6194,202,-1495,-1869,-1050,-1769
21111,5899,323,-1022,-2172,-1207,-1925
21121,5431,636,-582,-2244,-1351,-1934
21131,4816,598,-109,-2562,-1480,-1805
21141,4122,298,118,-2967,-1591,-1707
21151,3513,-32,330,-3294,-1560,-1671
21161,2815,-384,929,-3325,-1412,-1694
21171,2094,-855,1379,-3333,-1253,-1818
21181,1546,-757,1368,-3425,-971,-1890
21191,1026,-504,1572,-3385,-657,-1891
21202,535,-593,1839,-3452,-377,-1847
21212,66,-905,1697,-3568,-162,-1798
21222,-188,-1105,1231,-3368,49,-1750
21232,-283,-1165,1185,-2912,254,-1728
21242,-172,-1201,1086,-2493,393,-1723
21252,50,-1273,835,-1986,489,-1697
21262,468,-1449,1148,-1472,599,-1656
21272,965,-1562,1412,-1253,723,-1614
21282,1663,-1840,1617,-1009,765,-1525
21292,2474,-2492,1634,-594,853,-1333
21302,3279,-3342,1772,-167,990,-1010
21312,3950,-3999,1599,20,1180,-706
21322,4859,-4242,1641,93,1382,-451
21332,5693,-4428,1361,105,1508,-147
21342,6423,-4794,972,56,1492,187
21352,6826,-5077,1214,-37,1401,569
21362,6267,-4702,1125,2,1095,763
21372,6080,-4254,1801,235,734,1103
21382,6305,-3929,1992,153,376,1327
21392,6895,-4401,1718,108,107,1466
21403,6785,-4856,955,211,-150,1561
21413,6690,-5417,760,433,-259,1698
21423,6721,-6111,849,492,-275,1830
21433,6717,-6587,1481,720,-324,1940
21443,6760,-6583,2188,1022,-354,2248
21453,6695,-5842,2499,1213,-346,2600
21463,6523,-4724,2204,1219,-195,2937
21473,6029,-3954,2283,864,128,3325
21483,4895,-3663,1883,451,509,3516
21493,4234,-3398,440,644,938,3237
21503,3618,-3262,936,1222,1466,3172
21513,2683,-2236,1118,829,2127,2990
21523,1483,-1186,1643,449,2405,2510
21533,-168,-2436,2660,903,2293,2290
21543,-563,-3576,3388,1142,2266,2661
21553,-114,-2962,3173,1618,2216,2882
21563,-99,-2411,2901,1288,1684,2913
21573,-254,-1586,2257,455,1173,2968
21583,8,-2027,2305,280,824,3209
21593,441,-1740,2008,150,845,3414
21604,276,52,418,580,670,3507
21614,485,1368,3047,1528,198,3581
21624,482,-647,2907,2960,-190,3872
21634,778,-1575,2888,2684,-768,3803
21644,2313,84,10,3086,-1300,3660
21654,2339,1563,566,2643,-1338,3336
21664,2351,3152,601,1771,-1569,3372
21674,2749,2294,1519,1595,-1498,3437
21684,3171,430,3486,776,-1608,3589
21694,2517,-1941,584,1038,-2059,4082
21704,3494,-4063,-1156,1872,-1123,3156
21714,8352,-3992,708,2593,-992,2320
21724,8534,-1241,3083,3614,1044,2115
21734,8351,2274,3503,4477,1403,-502
21744,8062,4133,4215,4105,788,-81
21754,8868,4299,1422,2007,-512,622
21764,11408,3851,-980,-737,-1221,120
21774,13795,2227,-3003,-3826,-687,-1508
21784,13131,-608,-3921,-3233,299,-2020
21794,9894,-2031,-2108,-861,491,-1627
21805,7315,-621,-254,-465,210,-2332
21815,6928,1158,-44,-71,-421,-2982
21825,6741,2014,1166,173,-1081,-2912
21835,5940,2276,1964,-575,-1956,-3240
21845,5427,1479,2289,-1428,-2863,-3656
21855,5273,-202,2338,-2262,-3657,-3822
21865,5471,-1581,2958,-3472,-4419,-3838
21875,5515,-2577,3229,-4335,-5025,-3706
21885,5504,-4041,3551,-4246,-5288,-3033
21895,5086,-5405,2106,-3499,-5031,-2131
21905,4919,-7477,1090,-2201,-4318,-969
21915,3769,-10032,1097,-1778,-3394,244
21925,2140,-12741,2414,-2743,-2522,524
21935,362,-12294,2481,-4174,-1902,106
21945,-992,-10689,-402,-2910,-982,299
21955,-2530,-9766,1631,-883,-120,1198
21965,-3540,-8204,2408,-2009,-19,1442
21975,-2533,-6667,1238,-2433,338,1709
21985,-3421,-6490,-1,-2152,348,2528
21995,-4060,-6335,808,-2605,-91,3073
22006,-3804,-5361,103,-2870,-571,3268
22016,-3133,-4454,-106,-2547,-945,3289
22026,-2273,-4468,139,-2276,-1401,3403
22036,-1302,-5191,607,-2320,-1880,3691
22046,-57,-5894,292,-2207,-2337,4031
22056,1134,-6333,125,-1932,-2640,4298
22066,2826,-6211,-94,-1731,-2504,4215
22076,4484,-5758,-614,-1248,-1999,3733
22086,5744,-5129,-452,-700,-1633,2950
22096,6579,-4321,168,-575,-1507,2503
22106,6194,-3186,123,-479,-1516,2627
22116,5969,-2786,-87,-256,-1648,2577
22126,6351,-2622,327,-937,-1635,2282
22136,6827,-2375,-645,-1275,-1642,1795
22146,6985,-2451,-1373,-1336,-1474,1460
22156,6697,-3178,-2281,-1208,-1280,1190
22166,6195,-4564,-2641,-751,-973,804
22176,5728,-5407,-2889,2,-540,254
22186,6513,-5719,-152,1239,658,-187
22196,7709,-7390,7346,2637,1585,-336
22207,5629,-7008,7050,2819,575,-652
22217,2723,-2967,1544,1157,9,-808
22227,1794,-713,111,1440,71,-617
22237,1962,-1131,-1258,839,35,-556
22247,2283,-2634,-1504,421,155,-584
22257,2217,-4006,-1876,-32,256,-640
22267,1399,-4611,-1650,204,190,-317
22277,101,-3554,-1436,353,25,-93
22287,-885,-1649,-1111,463,-220,59
22297,-1482,-107,-1051,332,-515,277
22307,-1832,371,-668,29,-773,490
22317,-1840,80,-584,-428,-863,495
22327,-1596,-399,-628,-772,-933,407
22337,-926,-1274,488,34,-911,338
22347,-356,-1575,1061,202,-818,478
22357,-30,-1067,242,260,-710,680
22367,262,-947,402,927,-425,922
22377,353,-1087,1160,1200,0,1091
22387,155,-595,389,1183,206,1140
22397,-10,-221,-437,1632,343,1207
22408,-213,-414,-469,1948,329,1321
22418,-217,-1088,41,2262,165,1312
22428,410,-2313,1377,2544,-150,1174
22438,2014,-3145,1724,2246,-183,912
22448,2830,-2786,1289,1892,-31,892
22458,2097,-2406,711,1446,18,822
22468,857,-3215,410,1153,-177,911
22478,29,-4551,429,911,-448,1128
22488,-28,-5556,389,1029,-612,1001
22498,398,-6128,1185,1235,-487,590
22508,600,-6178,1893,1004,-303,94
22518,651,-5945,2283,386,-192,-332
22528,943,-5956,1610,-206,-202,-721
22538,1596,-6175,276,-733,-218,-1141
22548,2720,-5810,-991,-851,13,-1561
22558,3807,-5190,-1061,-844,498,-1895
22568,4483,-5511,673,-790,1041,-2154
22578,3959,-6572,1380,-1445,1074,-2169
22588,3724,-6133,1013,-1987,954,-2369
22598,3983,-5871,423,-1505,960,-2349
22609,3898,-6059,700,-878,946,-2207
22619,3341,-5696,820,-125,879,-2170
22629,2694,-4478,1186,525,827,-2117
22639,2160,-3176,1601,941,743,-2079
22649,1791,-2179,2343,1038,619,-2036
22659,1419,-1514,3077,763,462,-2009
22669,999,-1393,3021,536,200,-2041
22679,804,-1428,2738,318,-25,-1907
22689,705,-1107,2184,107,-132,-1808
22699,738,-630,1542,192,-186,-1811
22709,862,-20,1497,177,-175,-1758
22719,820,592,1376,217,-207,-1752
22729,667,946,830,645,-222,-1661
22739,444,1139,723,996,-293,-1448
22749,405,1386,838,1033,-394,-1345
22759,664,1511,708,1256,-372,-1424
22769,893,1569,190,1224,-207,-1556
22779,1475,1650,-13,1068,-3,-1933
22789,2339,1005,-514,1079,262,-2159
22799,2892,570,398,540,835,-2307
22810,2699,-93,549,341,1005,-2663
22820,2717,-440,826,163,1016,-3139
22830,3049,-345,512,238,786,-3501
22840,3470,-446,6,480,579,-3721
22850,4881,-824,-354,752,391,-3834
22860,6231,-1007,-1290,1465,473,-3955
22870,7372,-838,-2559,2568,431,-4508
22880,9428,-1154,-3275,3074,259,-4647
22890,12600,-1838,-2923,2958,400,-3828
22900,14564,-2709,-4004,2532,295,-3012
22910,15740,-3513,-3015,1711,896,-1920
22920,14633,-4964,-1590,749,1630,-1419
22930,13347,-6739,567,-238,1973,-1278
22940,12226,-9175,3018,-331,1983,-901
22950,9914,-12452,5488,690,1132,-1864
22960,5724,-9362,3213,-570,-344,-2440
22970,5956,965,804,-742,-447,-3195
22980,5944,3292,3669,-2523,-962,-3024
22990,4908,-1757,1333,-4816,-1858,-1894
23000,4617,-5767,490,-4166,-1999,-1362
23011,3206,-5709,1218,-3302,-1928,-1200
23021,1706,-4659,1612,-2587,-1779,-982
23031,410,-5490,2316,-1968,-1574,-466
23041,-901,-6703,2828,-1220,-1175,-44
23051,-1999,-6640,3327,-475,-687,127
23061,-2881,-5917,3696,-72,-256,219
23071,-3510,-5574,3834,127,54,425
23081,-3607,-5881,4193,113,180,755
23091,-3414,-5844,3227,385,280,903
23101,-2758,-5806,3089,825,259,1352
23111,-1926,-5600,2889,875,296,1711
23121,-1030,-5177,2681,890,418,1880
23131,-428,-4787,2647,903,526,2117
23141,-52,-4565,2482,927,602,2353
23151,315,-4390,2420,977,644,2571
23161,739,-4114,2308,944,697,2782
23171,1186,-3818,2143,888,782,2983
23181,1559,-3679,2038,903,844,3183
23191,1982,-3649,2136,965,874,3364
23201,2574,-3483,2107,1066,898,3465
23211,3261,-3254,2091,1248,971,3547
23222,3845,-2945,2210,1429,1036,3586
23232,4420,-2849,1915,1766,1020,3553
23242,5244,-2772,1685,2092,1086,3548
23252,6386,-2501,1651,2205,1247,3327
23262,7864,-2492,1590,2125,1416,2913
23272,10004,-2636,2261,1740,1446,2228
23282,12490,-2365,2138,1185,1064,1399
23292,14382,-1964,1613,971,478,1297
23302,14653,-1792,744,810,-71,1370
23312,13749,-1841,-947,604,-287,1145
23322,12713,-2051,-2477,550,-105,660
23332,11822,-1603,-1931,312,204,354
23342,9784,-545,-1277,359,165,296
23352,7628,108,-994,1062,-305,203
23362,5838,181,-1219,1920,-1013,184
23372,4821,901,-1224,2184,-1547,-82
23382,4225,2251,-542,2088,-1776,-428
23392,3421,3315,294,1617,-1912,-761
23402,2809,3388,827,1004,-2172,-1283
23412,2120,3255,1205,74,-2056,-1329
23422,899,2573,708,237,-1984,-1345
23432,904,1733,758,167,-1990,-1650
23442,1266,1498,776,-106,-1827,-1817
23452,1432,1502,1113,-173,-1542,-1986
23462,1285,1600,1359,-181,-1328,-2166
23473,890,1969,1360,-494,-1228,-2217
23483,584,2338,1318,-947,-1124,-2320
23493,464,2391,1030,-1478,-1066,-2523
23503,639,1950,779,-1870,-1017,-2747
23513,1019,1266,763,-2173,-949,-2895
23523,1510,623,764,-2267,-797,-3032
23533,1969,59,981,-2186,-499,-3117
23543,2187,-428,1642,-2135,-187,-3172
23553,2234,-777,1811,-2309,75,-3243
23563,2042,-819,1415,-2351,270,-3316
23573,1790,-688,1136,-2169,341,-3387
23583,1756,-532,1106,-2087,276,-3469
23593,2140,-287,821,-2250,151,-3588
23603,3113,-496,1129,-2404,33,-3520
23613,4526,-1887,1649,-2654,-16,-3230
23623,5913,-4285,1268,-2459,166,-2750
23633,6592,-6669,1077,-1606,334,-2094
23643,7030,-7491,1312,-680,456,-1631
23653,8125,-6028,1639,44,726,-1342
23663,8574,-3239,2471,-25,749,-1274
23673,8880,-2339,2811,-633,411,-1027
23683,9460,-5607,1796,-606,331,-115
23693,9851,-7789,2298,-110,591,163
23703,9399,-7731,1767,377,503,-5
23713,8835,-7236,1558,779,489,406
23724,8096,-7463,1921,656,237,827
23734,7559,-8105,1867,587,1,1375
23744,7233,-8223,2131,588,-91,1845
23754,6575,-8061,1852,577,-260,2278
23764,5911,-7843,2105,829,-330,2758
23774,4936,-7232,1662,1225,-406,3144
23784,4097,-6267,1455,1638,-398,3481
23794,3011,-5398,1363,2030,-347,3876
23804,2220,-4662,1600,2487,-226,4169
23814,1700,-3940,1623,2862,-81,4403
23824,1441,-3308,1384,3347,113,4555
23834,1471,-2591,1407,3736,392,4695
23844,1600,-2098,1092,4025,738,4789
23854,1704,-2148,848,4351,1060,4818
23864,2007,-2102,729,4736,1429,4829
23874,2317,-1671,747,5081,1751,4778
23884,2638,-1198,648,5372,2040,4734
23894,2817,-933,742,5465,2259,4638
23904,3061,-750,580,5448,2440,4349
23914,3026,-327,250,5427,2603,4252
23924,2635,5,511,5337,2665,4146
23934,2785,392,585,5042,2639,3981
23944,3431,392,666,4932,2660,3869
23954,4018,119,748,4759,2641,3700
23964,4591,140,807,4649,2645,3443
23975,4767,626,1065,4498,2634,3141
23985,4910,1319,1285,4132,2619,2809
23995,5188,1795,1415,3614,2544,2435
24005,5665,1847,1329,2991,2492,2077
24015,6247,1632,1167,2477,2426,1649
24025,6860,1487,988,2129,2385,1157
24035,7343,1637,895,1816,2349,602
24045,7718,1715,833,1438,2231,27
24055,7793,1596,745,941,1922,-526
24065,7569,1299,545,392,1520,-1067
24075,7242,793,284,-214,1026,-1519
24085,6902,352,239,-837,363,-1997
24095,6643,-105,44,-1377,-336,-2444
24105,6384,-551,-85,-1823,-1112,-2786
24115,5957,-813,112,-2272,-1878,-3106
24125,5803,-879,308,-2842,-2614,-3453
24135,5938,-901,366,-3501,-3274,-3772
24145,6177,-877,363,-4206,-3813,-4121
24155,6351,-802,438,-4887,-4213,-4440
24165,6482,-842,750,-5440,-4487,-4724
24175,6631,-980,1188,-6012,-4634,-4982
24185,6778,-1054,1600,-6552,-4643,-5309
24195,6858,-1144,2271,-7091,-4519,-5631
24205,6814,-1177,2908,-7598,-4239,-5899
24216,6750,-1275,3208,-7944,-3723,-6108
24226,6640,-1603,3337,-8257,-3021,-6193
24236,6344,-2082,3210,-8520,-2220,-6164
24246,5878,-2481,2904,-8693,-1333,-6074
24256,5377,-2940,2220,-8764,-445,-5905
24266,4750,-3340,1431,-8838,379,-5653
24276,4063,-3496,655,-8849,1077,-5376
24286,3261,-3599,118,-8509,1553,-5115
24296,2393,-3406,47,-7994,1735,-4856
24306,1735,-2643,15,-7456,1745,-4631
24316,1470,-2031,135,-6588,1753,-4476
24326,1676,-2046,604,-5599,1695,-4208
24336,2245,-2380,1025,-4470,1772,-3890
24346,2774,-2211,1781,-3646,1995,-3613
24356,3223,-944,2022,-3506,2201,-3629
24366,4146,-189,2089,-3728,2450,-3656
24376,5312,-1112,1911,-3968,2696,-3389
24386,6182,-2557,1276,-3712,2947,-3019
24396,6990,-2935,700,-3107,3248,-3117
24406,8021,-2353,832,-2879,3418,-3119
24417,8607,-2920,-364,-2548,3308,-2845
24427,8696,-3949,-633,-1658,3214,-2246
24437,8151,-3414,-257,-1349,2930,-2072
24447,8161,-2034,543,-1490,2583,-1846
24457,8866,-1174,1208,-1886,2030,-1495
24467,9297,-756,1191,-2416,1380,-1042
24477,8988,-161,947,-2879,660,-596
24487,8333,281,755,-3338,-8,-186
24497,7834,391,406,-3772,-585,105
24507,7606,56,33,-4000,-1057,364
24517,7356,-617,-324,-3946,-1380,626
24527,6770,-1153,-705,-3596,-1568,786
24537,5827,-1352,-824,-3032,-1651,930
24547,4838,-1241,-622,-2423,-1697,1055
24557,3935,-1208,-358,-1870,-1747,1173
24567,3210,-1192,-83,-1384,-1746,1270
24577,2505,-1125,135,-989,-1751,1315
24587,1892,-1096,286,-572,-1733,1358
24597,1419,-996,388,-276,-1742,1393
24607,1051,-1008,390,-24,-1747,1428
24618,749,-1092,279,189,-1756,1430
24628,571,-1116,134,428,-1772,1439
24638,468,-1111,70,664,-1779,1455
24648,421,-1135,69,877,-1775,1485
24658,315,-1120,42,1046,-1771,1505
24668,215,-1065,29,1204,-1759,1525
24678,144,-1005,35,1346,-1761,1559
24688,111,-942,80,1439,-1768,1606
24698,156,-989,155,1545,-1793,1631
24708,231,-1026,145,1634,-1803,1644
24718,332,-983,184,1745,-1813,1649
24728,446,-907,291,1826,-1820,1670
24738,548,-878,368,1884,-1833,1672
24748,737,-836,399,1913,-1859,1666
24758,1071,-887,443,1964,-1909,1627
24768,1615,-960,441,1999,-1961,1539
24778,2308,-1048,419,2030,-1996,1388
24788,3221,-1214,365,2189,-1985,1163
24798,4300,-1633,427,2412,-1889,908
24808,5544,-2196,135,2668,-1708,607
24819,7069,-2898,77,3082,-1411,234
24829,8498,-3606,283,3519,-1135,-32
24839,9701,-4077,392,3838,-1012,-92
24849,11137,-4311,368,4305,-949,62
24859,11859,-4596,315,4667,-1033,507
24869,10708,-4667,119,4735,-1095,686
24879,9032,-4144,492,4451,-997,717
24889,7622,-3190,952,3886,-1043,857
24899,6438,-2391,1398,3279,-1301,1173
24909,5261,-1903,1798,2678,-1658,1623
24919,4144,-1571,2025,2175,-2005,1972
24929,3152,-1299,2101,1784,-2316,2183
24939,2397,-1214,1909,1644,-2506,2331
24949,1889,-1477,1779,1760,-2602,2461
24959,1616,-1836,1857,1885,-2563,2499
24969,1582,-2178,1785,2094,-2374,2354
24979,1714,-2533,1918,2463,-2052,2185
24989,1909,-2819,1958,3048,-1684,2104
24999,2036,-2829,2016,3601,-1315,2123
25009,2170,-2578,1876,4037,-991,2166
25020,2254,-2190,2161,4284,-609,2284
25030,2027,-1643,1875,4139,-258,2335
25040,2102,-1750,1227,4521,110,2498
25050,1992,-2003,1086,4094,432,2908
25060,1907,-2347,187,3752,826,2878
25070,2207,-2633,63,3808,1116,2694
25080,2896,-2649,502,3989,1280,2487
25090,4002,-2364,2324,4056,1517,2280
25100,3852,-1430,2705,3507,1253,2020
25110,3034,-1570,3830,3495,780,1907
25120,2468,-2349,4168,2645,340,1713
25130,2538,-2506,3601,1482,127,1369
25140,2852,-3020,3308,413,-324,876
25150,2951,-2788,1172,92,-715,589
25160,2787,-1440,27,334,-798,567
25170,3394,-857,1440,629,-1164,617
25180,2824,-1904,1525,831,-1737,607
25190,1927,-2801,1538,1226,-2472,756
25200,1569,-1548,-428,1000,-2602,533
25210,2131,306,-974,1738,-3006,165
25221,2106,1595,-489,1854,-2758,595
25231,2101,2108,-1775,369,-2705,987
25241,1653,2001,92,-1851,-2442,1746
25251,2195,-936,-4712,-109,-2268,1234
25261,2043,-4110,-2535,679,-2130,942
25271,4151,-3067,2324,-898,-1336,-316
25281,4233,-202,1774,149,-242,-944
25291,3006,-626,68,2877,-538,-626
25301,1601,-1858,-326,2922,-1515,280
25311,1686,-543,-1772,441,-2356,-36
25321,4382,581,-1285,405,-1476,-1477
25331,6523,-100,1199,1088,-358,-1786
25341,6124,-610,2247,21,-358,-1333
25351,4792,-974,1531,-339,-562,-1534
25361,4173,-1444,1457,-697,-702,-1894
25371,4718,-1372,1126,-1355,-779,-2324
25381,5418,-1204,966,-1780,-672,-2611
25391,5531,-1171,974,-2185,-499,-2706
25401,5279,-1177,875,-2651,-343,-2785
25411,5366,-1250,942,-3017,-172,-2924
25422,5842,-1099,664,-3664,-33,-3056
25432,6582,-450,175,-4326,279,-3178
25442,7274,-653,-224,-4384,632,-3208
25452,7205,-1039,63,-4722,871,-2966
25462,6807,-737,-99,-5044,1070,-3036
25472,6226,-911,-459,-4706,1214,-2905
25482,5536,-1241,-61,-4469,1166,-2791
25492,5411,-1003,576,-4516,1042,-3000
25502,5569,-321,1311,-4657,975,-3142
25512,5577,190,1529,-4861,1018,-3089
25522,5577,290,1562,-5259,1047,-2873
25532,5754,184,1323,-5889,1235,-2730
25542,5910,-151,606,-6112,1516,-2552
25552,5969,-828,81,-6015,1928,-2269
25562,5717,-1139,239,-6124,2196,-2022
25572,5483,-905,-29,-6173,2344,-1808
25582,5135,-790,-125,-6131,2370,-1495
25592,5109,-801,342,-6366,2389,-1183
25602,5227,-900,274,-6716,2348,-1018
25612,5551,-1270,128,-6688,2290,-746
25623,5573,-2007,-358,-6547,2299,-319
25633,5451,-2966,-553,-6356,2394,17
25643,5205,-3939,-551,-6133,2552,136
25653,4879,-4531,-407,-5793,2596,25
25663,4342,-4384,-97,-5541,2549,-34
25673,3815,-3794,240,-5393,2516,50
25683,3865,-4002,488,-5152,2557,156
25693,3132,-4351,864,-4954,2740,234
25703,2609,-3424,559,-5253,2676,-60
25713,2096,-2603,183,-5187,2658,-24
25723,4075,-2801,-978,-4670,2036,-1750
25733,3056,-1895,430,-6727,2507,-509
25743,1107,-534,32,-7786,3037,-268
25753,772,-749,-1743,-5802,2459,-659
25763,2138,-1553,-1588,-4406,2055,132
25773,2098,-2186,-2301,-4288,1889,667
25783,2488,-2368,-2591,-4902,1891,336
25793,2546,-2149,-3532,-5743,1755,546
25803,1979,-2024,-3849,-5803,1648,915
25813,1640,-1880,-3650,-5532,1542,884
25824,1700,-1540,-3348,-5605,1459,810
25834,1778,-953,-3112,-6016,1431,721
25844,1547,-192,-2873,-6522,1349,504
25854,1424,521,-3047,-6734,1247,314
25864,1450,710,-3666,-6627,1096,129
25874,1574,757,-4110,-6560,1082,-83
25884,1954,915,-4371,-6336,1079,-398
25894,2474,915,-4333,-6149,1005,-693
25904,2980,767,-4504,-5756,870,-1022
25914,3176,703,-3989,-5098,751,-1379
25924,3597,716,-4078,-4179,573,-1789
25934,4173,1273,-3640,-3379,504,-2050
25944,5097,2251,-2879,-2886,469,-2429
25954,5971,1462,-1868,-2472,260,-2637
25964,6312,1445,-1030,-2060,-46,-2955
25974,7059,1508,-496,-1453,-616,-3150
25984,7546,1242,-68,-812,-1244,-3403
25994,7918,428,281,-178,-1933,-3536
26004,8298,-308,443,551,-2528,-3795
26014,8500,-544,664,1492,-3049,-3945
26025,8729,-602,966,2408,-3532,-4144
26035,8924,-895,1232,3280,-3961,-4291
26045,9131,-1271,1323,4165,-4309,-4368
26055,9220,-1606,1290,5146,-4556,-4485
26065,9149,-1707,1200,6065,-4750,-4581
26075,8788,-1797,758,7042,-4873,-4639
26085,8317,-1957,-1,8184,-4964,-4646
26095,7934,-2204,-985,9438,-5034,-4652
26105,7629,-2682,-2216,10969,-5077,-4589
26115,7133,-2917,-3759,12573,-5136,-4499
26125,6773,-2767,-5549,14231,-5143,-4314
26135,6759,-2471,-7227,15945,-5006,-3964
26145,6940,-2223,-8488,17446,-4655,-3465
26155,7301,-1652,-9327,18628,-4007,-2891
26165,7687,-618,-9413,19461,-3184,-2068
26175,8343,678,-8700,19838,-2187,-921
26185,9009,1994,-7166,19708,-1108,414
26195,9202,3195,-5247,19078,32,1706
26205,8060,4209,-3181,18089,867,2949
26215,6036,4916,-981,16859,1217,4044
26226,3974,5131,568,15396,1236,4973
26236,2146,4475,1605,14065,1121,5439
26246,1154,3300,2286,12576,1362,5410
26256,610,1992,2294,11552,1535,5043
26266,1171,1174,2303,10904,1912,4812
26276,2062,891,1638,10452,2150,5018
26286,1487,919,1345,10148,2151,5222
26296,1072,1196,1270,9385,1985,5061
26306,1614,1620,1022,8277,1887,4879
26316,1919,1392,665,7336,1556,4652
26326,2234,860,599,6383,1443,4364
26336,2491,762,377,5351,1144,3895
26346,2684,154,11,4409,654,3445
26356,2781,-998,-531,3548,216,2975
26366,2797,-1380,-616,2929,-318,2447
26376,2821,-1561,-655,2410,-863,1941
26386,2914,-1505,-825,1954,-1320,1478
26396,3015,-1141,-766,1428,-1802,1023
26406,2999,-1017,-875,913,-2278,476
26416,3117,-770,-834,338,-2670,-167
26427,3263,-653,-656,-301,-3027,-797
26437,3483,-462,-485,-1031,-3314,-1370
26447,3616,-241,-108,-1806,-3560,-1859
26457,3957,-241,56,-2605,-3719,-2241
26467,4231,-504,-9,-3287,-3777,-2452
26477,4275,-745,339,-4000,-3778,-2595
26487,4143,-502,885,-4719,-3739,-2726
26497,3994,-193,1253,-5292,-3784,-2863
26507,3941,39,1381,-6031,-3768,-2945
26517,4220,650,712,-6737,-3626,-3150
26527,4660,1095,250,-6947,-3273,-3381
26537,5434,1190,-78,-6898,-2760,-3262
26547,5751,157,65,-6813,-2242,-2962
26557,5901,-1149,527,-6783,-1744,-2926
26567,6070,-1771,1220,-6910,-1334,-3195
26577,6135,-890,1786,-7537,-1118,-3675
26587,6271,783,1741,-8277,-952,-4269
26597,6661,1602,1447,-8847,-778,-4622
26607,7417,1112,1146,-9293,-607,-4521
26617,8078,-159,631,-9679,-375,-4311
26628,8472,-1359,58,-9687,-78,-4233
26638,8421,-2143,-216,-9235,256,-4112
26648,8075,-2674,-122,-8502,545,-3870
26658,7597,-2900,355,-7729,749,-3555
26668,7007,-2925,830,-7015,876,-3272
26678,6527,-2724,1336,-6596,962,-3030
26688,6212,-2441,1630,-6407,1091,-2853
26698,6050,-2179,1843,-6449,1278,-2705
26708,5832,-2026,1863,-6623,1457,-2514
26718,5560,-2063,1724,-6897,1612,-2296
26728,5445,-2297,1018,-6932,1727,-2106
26738,5489,-2704,517,-6371,1911,-1800
26748,5352,-2855,515,-5804,2105,-1493
26758,5046,-2433,671,-5445,2258,-1358
26768,4763,-1636,838,-5261,2326,-1293
26778,4537,-940,966,-5233,2323,-1196
26788,4510,-510,915,-5340,2232,-1060
26798,4662,-334,729,-5413,2187,-918
26808,4734,-293,672,-5526,2138,-791
26818,4747,-505,225,-5375,2066,-667
26829,4671,-700,102,-4975,2041,-522
26839,4660,-633,6,-4548,1980,-460
26849,4611,-605,-100,-4149,1916,-372
26859,4553,-728,-299,-3723,1862,-282
26869,4500,-845,-387,-3305,1821,-235
26879,4335,-823,-462,-2914,1797,-215
26889,4151,-866,-473,-2481,1774,-189
26899,4024,-1004,-393,-2106,1740,-190
26909,3913,-1026,-368,-1803,1691,-229
26919,3787,-955,-302,-1529,1632,-259
26929,3656,-997,-253,-1263,1548,-285
26939,3488,-900,-156,-1083,1450,-343
26949,3306,-827,-189,-943,1322,-366
26959,3116,-1012,-224,-767,1203,-338
26969,2975,-1296,-233,-593,1115,-345
26979,2915,-1451,-195,-424,1044,-391
26989,2851,-1459,-135,-275,998,-429
26999,2745,-1400,-61,-150,927,-430
27009,2645,-1437,33,-63,825,-423
27019,2587,-1558,146,26,701,-402
27030,2535,-1644,222,74,555,-400
27040,2526,-1672,344,90,419,-405
27050,2510,-1649,343,75,290,-403
27060,2524,-1580,395,60,168,-385
27070,2566,-1603,372,37,29,-347
27080,2607,-1625,352,-32,-86,-307
27090,2699,-1649,344,-69,-187,-293
27100,2795,-1752,412,-120,-272,-287
27110,2796,-1947,469,-128,-388,-279
27120,2805,-2075,547,-69,-508,-267
27130,2837,-2071,700,-44,-621,-266
27140,2871,-2024,729,-20,-709,-259
27150,2936,-1972,734,26,-763,-218
27160,2936,-1979,816,67,-807,-185
27170,2893,-1982,922,91,-850,-174
27180,2845,-1920,969,133,-916,-166
27190,2815,-1867,1038,223,-995,-160
27200,2813,-1932,1112,293,-1104,-140
27210,2903,-1987,1201,355,-1197,-121
27220,3007,-2004,1347,469,-1284,-84
27230,3120,-2029,1378,570,-1357,-49
27241,3273,-2089,1450,682,-1389,16
27251,3380,-2046,1541,739,-1379,77
27261,3437,-1791,1631,748,-1346,134
27271,3505,-1623,1760,654,-1313,238
27281,3547,-1599,1770,557,-1300,332
27291,3574,-1555,1858,392,-1285,398
27301,3595,-1502,1934,311,-1295,468
27311,3624,-1583,1782,399,-1342,544
27321,3808,-1707,1825,594,-1372,635
27331,3949,-1703,1780,822,-1426,760
27341,4067,-1481,1713,1053,-1420,874
27351,4086,-1214,1785,1191,-1461,979
27361,4078,-727,1894,1123,-1490,1111
27371,4033,-379,1762,1018,-1518,1274
27381,3933,-347,1737,979,-1569,1420
27391,4049,-356,1695,1030,-1675,1524
27401,3858,-364,2134,877,-1704,1703
27411,3883,-198,2093,695,-1813,1661
27421,4041,64,2099,730,-1935,1751
27431,4113,167,2055,729,-2097,1908
27441,4389,38,1916,621,-2244,1650
27451,5209,-506,887,539,-2200,1288
27461,5651,-1655,-308,1136,-1930,1270
27471,5820,-2704,468,2177,-1424,963
27481,5040,-1868,2596,2250,-1089,670
27492,4418,436,3471,2060,-973,56
27502,3771,2688,3256,1909,-1179,-44
27512,3513,3296,654,1626,-1704,-140
27522,4716,1813,265,1497,-2231,-306
27532,6554,1328,-879,477,-1634,-331
27542,7359,233,-757,1744,-1428,-320
27552,7174,892,46,1299,-923,303
27562,6439,2579,365,870,-319,269
27572,5686,3232,1261,139,304,423
27582,5317,2982,1785,-330,757,270
27592,5647,2273,1930,-1056,892,-43
27602,6270,2440,732,-1694,818,-732
27612,6988,3601,-562,-2069,825,-1503
27622,7506,3901,-948,-2094,990,-1899
27632,7309,3635,-997,-2655,1055,-1968
27642,6756,3463,-823,-2536,1305,-2183
27652,6002,2998,-9,-2480,1415,-2161
27662,5579,2632,282,-2719,1435,-2222
27672,5717,2184,353,-3002,1551,-2349
27682,6128,1496,444,-3289,1775,-2413
27692,6307,741,491,-3459,1965,-2422
27702,6270,131,450,-3596,2112,-2409
27712,6091,-336,332,-3669,2193,-2375
27722,5799,-701,-5,-3588,2230,-2354
27732,5481,-942,-485,-3266,2266,-2331
27743,5253,-1088,-726,-2912,2309,-2284
27753,5153,-1026,-1037,-2699,2374,-2313
27763,5052,-812,-1256,-2544,2432,-2373
27773,4938,-551,-1527,-2673,2445,-2439
27783,4937,-326,-1979,-2980,2401,-2453
27793,4912,-423,-2211,-3194,2371,-2340
27803,4813,-1031,-2501,-3349,2307,-2274
27813,4692,-1631,-2809,-3275,2246,-2268
27823,4733,-1921,-2835,-3057,2222,-2317
27833,4946,-1869,-2826,-2899,2209,-2320
27843,5088,-1847,-2833,-2773,2220,-2210
27853,5120,-1988,-2677,-2735,2210,-2029
27863,5046,-1725,-2694,-2955,2217,-1877
27873,4895,-1463,-2338,-3084,2240,-1651
27883,4573,-1274,-2091,-3356,2148,-1411
27893,4490,-734,-1946,-3629,1968,-1219
27903,4677,144,-1699,-3856,1725,-1086
27913,5107,814,-1254,-4124,1329,-909
27923,5582,1205,-832,-4511,868,-662
27933,5510,1183,-748,-4920,405,-357
27943,4874,1100,-891,-5184,52,-76
27953,4432,967,-991,-5417,-197,163
27963,4181,663,-1160,-5606,-326,385
27973,3801,287,-1061,-5600,-366,580
27983,3563,155,-977,-5400,-402,657
27994,3474,61,-819,-5071,-485,710
28004,3648,-182,-563,-4737,-546,726
28014,3980,-461,-349,-4354,-606,652
28024,4267,-541,-125,-4071,-696,619
28034,4445,-409,78,-3972,-820,574
28044,4540,-283,377,-4021,-960,554
28054,4577,-636,677,-4012,-1186,593
28064,4442,-1191,778,-3866,-1388,623
28074,4255,-1321,835,-3596,-1551,571
28084,4251,-1327,969,-3347,-1654,483
28094,4639,-1499,885,-3192,-1670,390
28104,5174,-2073,988,-3014,-1573,344
28114,5364,-3078,1369,-2886,-1445,330
28124,5234,-3883,1688,-2763,-1282,346
28134,4936,-4322,1969,-2439,-1006,391
28144,4549,-4372,2293,-2190,-695,521
28154,4080,-4078,2388,-1914,-364,642
28164,3646,-4070,2483,-1582,-155,738
28174,3319,-3883,2413,-1211,-51,733
28184,3196,-3697,2122,-539,-8,686
28194,3090,-3631,1519,287,28,690
28204,3125,-3788,688,1518,155,694
28214,3073,-4051,328,2749,438,722
28224,2807,-3763,-102,3731,769,593
28234,2629,-3605,-501,4747,1053,458
28245,2390,-3489,-308,5300,1197,348
28255,2022,-3058,382,5236,1183,221
28265,1489,-2718,816,4954,1038,156
28275,1213,-2569,1008,4262,803,121
28285,1306,-3027,-268,3648,554,68
28295,1550,-4302,-724,3418,532,60
28305,1439,-5361,-909,3447,664,-112
28315,1300,-5645,-873,3873,847,-400
28325,1074,-4562,32,4066,1045,-536
28335,383,-3505,812,3886,927,-534
28345,-55,-3630,500,3727,564,-444
28355,-132,-4235,190,3086,247,-263
28365,50,-4732,-487,3086,-9,-260
28375,-232,-4809,-626,3556,-212,-190
28385,-998,-4093,-822,3929,-419,-157
28395,-1586,-3258,-712,4074,-669,-179
28405,-1706,-2752,-515,4210,-934,-191
28415,-1581,-2433,-373,4213,-1235,-230
28425,-1151,-2650,-865,4625,-1536,-249
28435,-895,-2827,-190,4117,-1800,-89
28445,-200,-2669,-718,3727,-1988,-267
28455,785,-2743,-566,3740,-2016,-333
28465,1750,-3259,-1057,3528,-2059,-305
28475,2783,-3904,-1798,3774,-1920,-244
28485,3819,-4630,-2172,4055,-1737,-77
28496,5262,-5161,-1804,4032,-1453,22
28506,6092,-5624,-1506,4281,-1257,69
28516,6026,-5925,-1645,4431,-1315,306
28526,5748,-5451,-1971,4216,-1556,684
28536,5804,-4637,-2381,3774,-1959,955
28546,5692,-4103,-2471,3484,-2434,1194
28556,4984,-3797,-2842,3507,-2797,1505
28566,4644,-3954,-3480,4020,-3190,1575
28576,4903,-4100,-4713,5054,-3142,1812
28586,5557,-4169,-4224,5679,-3260,2109
28596,6703,-4126,-5940,6156,-2874,2239
28606,9402,-7286,-3048,6274,-1573,3092
28616,7939,-6729,-1093,1942,-1112,3716
28626,8006,-926,-4122,2341,-1254,800
28636,8263,826,-1833,3774,-67,1369
28646,4660,655,-304,2633,-359,2621
28656,4100,-920,-1451,2148,-1019,1980
28666,5051,-3508,-1843,1716,-899,1867
28676,4566,-3460,-2398,1090,-852,1468
28686,4517,-2919,-2411,1944,-946,841
28696,4044,-3495,-1955,2672,-988,967
28706,3503,-3831,-2097,3120,-1207,717
28716,3475,-3554,-1719,3122,-1274,384
28726,3158,-2519,-1089,2371,-1221,290
28736,2904,-1731,-364,1729,-1152,326
28747,2640,-2085,-784,1696,-1381,532
28757,3330,-3079,-714,2415,-1398,552
28767,3118,-3190,-1416,2319,-1266,583
28777,3097,-2757,-2342,2378,-963,479
28787,3213,-2192,-2151,2551,-580,700
28797,3289,-2218,-1585,2631,-194,1101
28807,3611,-2587,-370,2725,377,1617
28817,3700,-3476,1234,2644,921,2221
28827,3505,-5288,1780,2813,1213,2657
28837,2662,-6959,944,3214,1030,2874
28847,2033,-5571,10,2931,639,2482
28857,2069,-1839,-771,2527,305,1947
28867,2124,843,-1416,2084,39,1841
28877,2270,84,-905,2005,-156,2211
28887,2658,-2822,-329,2271,-83,2433
28897,3880,-3957,440,3000,324,2365
28907,5061,-2588,1441,3378,940,2264
28917,4749,-262,1425,3116,1387,1926
28927,3825,356,2789,3122,1623,2124
28937,3452,-988,2667,2517,1355,2740
28947,4240,-2447,1745,2384,1259,2870
28957,5171,-2918,1712,2684,1459,2670
28967,5554,-2207,2202,2866,1566,2509
28977,5792,-1499,2865,2827,1540,2447
28987,6388,-1939,3146,2893,1461,2286
28998,7139,-2397,2789,3086,1648,2151
29008,7402,-1411,1991,3439,1952,1777
29018,7155,94,1615,3672,2136,1438
29028,6603,1251,1332,3569,2054,1127
29038,6164,1979,709,3935,1868,722
29048,5927,2380,457,4424,1528,172
29058,6306,3646,-324,4453,1154,-826
29068,6918,6179,-1749,4315,683,-1873
29078,8011,7696,-2280,4070,39,-2717
29088,9294,6621,202,3205,-808,-3340
29098,11824,3758,1110,2137,-1257,-3999
29108,14318,1652,2251,1041,-1391,-4506
29118,14611,588,2937,-489,-1598,-4641
29128,14144,1891,1734,-2419,-1565,-4512
29138,12985,3759,99,-3979,-1397,-3850
29148,11670,5217,-330,-5126,-1148,-2821
29158,8211,8076,-2580,-7082,-1283,-2235
29168,7976,11380,-4248,-6886,185,-2520
29178,7618,7586,-38,-9345,162,-1801
29188,8009,9412,-2610,-10360,70,-2229
29198,8411,7063,-3901,-10180,190,-815
29208,8798,1465,-3472,-8867,352,439
29218,8838,-1113,-1273,-6658,890,1374
29228,9114,-984,782,-4814,1445,1991
29239,9160,-909,2547,-3759,1844,2655
29249,8999,-1653,3325,-3220,2062,3250
29259,8463,-3509,3678,-2750,2094,3612
29269,7923,-5374,3661,-1835,2085,3630
29279,7037,-6092,3024,-341,2093,3494
29289,6965,-5593,3811,872,2526,3383
29299,6537,-3953,3302,1597,2959,3163
29309,5569,-2470,3415,2108,3210,2857
29319,4276,-1179,3672,2013,3307,2524
29329,4201,1,3205,1381,3428,1838
29339,4034,567,2231,710,3339,1178
29349,3363,22,1688,231,3168,649
29359,2582,-608,1155,6,3040,-103
29369,1849,-994,1142,404,2716,-796
29379,1126,-1131,718,942,2401,-1345
29389,1401,-1767,-271,1402,1845,-1845
29399,1116,-765,-1006,1561,1389,-2382
29410,828,1157,-2312,1262,551,-3129
29420,169,2263,-3216,1037,-888,-3952
29430,-407,2448,-3269,1005,-2280,-4617
29440,-392,2116,-1642,1065,-3378,-5383
29450,-67,1100,1046,1002,-4102,-6144
29460,384,-713,4132,612,-4370,-6743
29470,1115,-2667,6285,-595,-3898,-6929
29480,2423,-3213,6582,-1972,-3308,-6783
29490,2356,-3865,6193,-3484,-2961,-6234
29500,4796,-1035,-2991,-4457,-2329,-5509
29510,8316,-3569,8522,-3663,-308,-3946
29520,2801,-4082,2452,-7318,-1438,-3875
29530,4488,1131,-494,-9005,-1564,-4785
29540,6362,3577,-4040,-10096,-1950,-4474
29550,9372,1622,-5152,-9846,-1597,-3555
29560,9331,-1198,-4994,-8086,-1189,-2577
29571,7765,-2552,-2709,-5749,-543,-1931
29581,6672,-2951,-714,-4177,-106,-1313
29591,6557,-2758,357,-2753,464,-770
29601,6426,-1641,2298,-2206,1029,-312
29611,5622,-598,3090,-2402,1259,65
29621,4400,258,4230,-3223,1265,315
29631,3541,747,3998,-4035,882,299
29641,3635,635,3385,-4566,564,189
29651,4623,-69,2248,-4860,533,177
29661,4717,-1762,476,-4277,806,464
29671,4873,-4277,2577,-3768,894,529
29681,4627,-5488,2649,-2824,1379,205
29691,4726,-4859,4097,-1085,2412,-373
29701,3556,-3108,3585,-1120,2585,-690
29711,2553,-1385,2235,-1568,2311,-1233
29721,2687,289,2397,-2480,1902,-1600
29731,3299,1324,25,-3280,1282,-1208
29742,4261,1632,211,-3478,1513,-383
29752,5033,1027,1935,-3212,2424,-7
29762,5158,-787,1603,-1334,2656,422
29772,5790,-3319,2780,-569,2861,1384
29782,5909,-5405,2241,-303,2652,2159
29792,5658,-5708,1191,-231,2870,2374
29802,5650,-4921,1330,275,3083,2209
29812,5291,-3658,1136,457,3143,2123
29822,5020,-2639,721,754,3122,2059
29832,4658,-1865,853,948,3033,1987
29842,4255,-1070,1260,416,2953,1868
29852,4281,-686,1526,-388,2753,1662
29862,4317,-1403,1533,-502,2516,1391
29872,4084,-2344,957,-358,2327,1190
29882,3895,-2292,504,23,2110,873
29892,3559,-1291,-59,581,2138,253
29902,3509,-276,-42,686,2087,-177
29913,3327,133,-555,441,2007,-348
29923,3256,-104,-777,330,2019,-487
29933,3164,-744,-689,271,2135,-653
29943,3112,-1203,-697,133,2200,-957
29953,3313,-1316,-985,97,2206,-1286
29963,3625,-1298,-1039,126,2252,-1498
29973,3776,-1414,-1008,90,2338,-1648
29983,3664,-1591,-937,-48,2403,-1752
29993,3413,-1682,-853,-254,2372,-1822
30003,3153,-1698,-713,-498,2237,-1846
30013,2981,-1624,-586,-758,2012,-1858
30023,2950,-1692,-523,-885,1770,-1837
30033,2886,-1891,-535,-868,1538,-1758
30043,2790,-1987,-601,-794,1338,-1655
30053,2612,-1859,-656,-642,1209,-1512
30063,2354,-1809,-443,-409,1152,-1387
30074,2047,-1809,-212,-418,1059,-1341
30084,1846,-1777,-107,-645,880,-1302
30094,1801,-1644,-73,-1023,735,-1267
30104,1825,-1634,-189,-1316,578,-1275
30114,2004,-1839,-296,-1455,425,-1271
30124,2174,-2064,-601,-1437,358,-1145
30134,2193,-2227,-568,-1213,425,-973
30144,2033,-2453,-16,-1088,500,-887
30154,1939,-2538,301,-1183,495,-878
30164,1965,-2288,465,-1287,444,-820
30174,2038,-1998,678,-1306,444,-755
30184,2036,-1740,1163,-1528,441,-697
30194,1956,-1441,1149,-1868,359,-628
30204,1895,-1410,1016,-1971,198,-456
30214,1876,-1721,1204,-2075,-40,-228
30224,2018,-2041,1285,-2060,-330,-57
30234,2328,-2445,2019,-1678,-565,42
30245,2522,-2734,2842,-1600,-749,89
30255,2709,-2482,3338,-1852,-1041,80
30265,3087,-2102,3126,-1982,-1143,123
30275,3474,-2808,3415,-1858,-1070,405
30285,3334,-3934,3636,-2332,-901,725
30295,3019,-4791,3076,-2425,-803,844
30305,2667,-5584,3188,-1773,-611,961
30315,2201,-5767,3553,-1141,-544,1158
30325,1834,-5404,3801,-488,-500,1295
30335,1450,-4863,4278,100,-493,1414
30345,1202,-4522,4550,421,-500,1489
30355,1176,-4441,4558,460,-559,1607
30365,1284,-4550,4456,449,-592,1687
30375,1494,-4858,4221,510,-565,1790
30385,1423,-5300,3896,607,-573,1845
30395,1600,-5586,3384,583,-449,1897
30405,1351,-5934,3277,839,-340,1981
30415,1159,-5980,3397,937,-206,2012
30425,1047,-5530,3516,848,-215,2052
30435,987,-5121,3645,781,-227,2176
30446,835,-5057,3419,895,-226,2319
30456,639,-5055,3349,915,-231,2454
30466,482,-4909,3084,819,-202,2540
30476,366,-4693,2820,713,-107,2504
30486,336,-4454,2428,603,31,2508
30496,335,-4428,2229,684,160,2618
30506,170,-4482,2220,830,277,2745
30516,61,-4333,2146,1006,304,2806
30526,30,-4144,2206,1139,322,2906
30536,104,-4009,2106,1168,353,2950
30546,155,-3762,1780,1098,411,2975
30556,168,-3519,1476,1055,497,3004
30566,168,-3319,1052,932,621,3036
30576,47,-3171,878,763,795,3094
30586,-106,-3001,804,501,855,3081
30596,-191,-2947,524,397,979,3127
30606,-417,-2779,520,178,1054,3232
30616,-547,-2425,307,-140,1178,3293
30626,-743,-2206,128,-515,1331,3415
30636,-966,-2119,-176,-885,1478,3573
30647,-1277,-2315,-260,-1098,1619,3737
30657,-1450,-2501,-618,-1356,1713,3850
30667,-1435,-2468,-1211,-1433,1839,3992
30677,-1327,-2198,-1348,-1596,1977,4137
30687,-1185,-1998,-1640,-1843,2249,4210
30697,-1115,-1773,-2382,-2380,2541,4216
30707,-1217,-1702,-2860,-2766,2910,4158
30717,-1492,-1706,-3167,-3166,3197,4159
30727,-1839,-1512,-3262,-3578,3313,4116
30737,-2083,-1153,-3514,-4183,3477,4079
30747,-2074,-1113,-4165,-4846,3674,3936
30757,-1982,-1986,-4908,-5237,4012,3768
30767,-1785,-2815,-5027,-5565,4489,3632
30777,-1814,-2645,-4107,-5982,4956,3419
30787,-1754,-1550,-4339,-6377,5480,3155
30797,-1586,-129,-4084,-6722,5984,2869
30807,-1094,1030,-4329,-7482,6513,2374
30817,-308,1503,-4971,-8055,7336,1754
30827,1319,942,-6622,-8042,8435,1128
30837,4031,1408,-7750,-8138,9729,299
30848,6839,2673,-8570,-7986,10708,-785
30858,9589,3497,-9058,-7269,11494,-1957
30868,14477,6212,-9795,-5500,12203,-3708
30878,18217,11215,-10971,-3520,11700,-6206
30888,22075,17217,-14189,-844,10238,-9322
30898,28071,18365,-16897,1624,7517,-12757
30908,31257,17122,-16764,3444,3591,-16347
30918,-32768,14779,-12497,5098,199,-19444
30928,-32768,10709,-3204,8003,-3718,-21407
30938,-32768,2627,7664,12031,-8475,-20928
30948,-32768,-10212,16839,17284,-13956,-18479
30958,-32768,-23263,21084,21802,-18905,-15963
30968,-32768,-32768,17566,26704,-22506,-12534
30978,-32768,-32768,16875,32576,-24821,-9547
30988,-32768,-32768,-6346,-32768,-22173,-3234
30998,30856,8317,-31820,-32768,-16455,97
31008,-32768,32481,-25308,21505,-759,-11469
31018,19329,3578,-14359,-32768,-4215,20447
31028,6425,6086,-32235,-32768,-500,7455
31038,28628,23544,-13010,30709,9619,6941
31049,31032,32735,16964,17698,6987,13382
31059,3965,6731,4829,458,2067,16713
31069,6218,-11654,-4625,-1436,1981,11758
31079,26230,-22960,-8150,682,3466,12427
31089,26833,-4359,-4886,5714,4239,7500
31099,19201,10591,-185,4632,5273,8464
31109,14249,9023,5194,2519,4870,8901
31119,13481,3535,5148,-1549,3594,6824
31129,13536,2454,4480,-3122,2102,5501
31139,13043,5061,4024,-4506,594,4419
31149,12699,7544,3076,-5904,-677,3961
31159,12325,7705,1550,-6878,-1699,3913
31169,12093,7183,35,-7823,-2314,3799
31179,12051,6431,-830,-8072,-2435,3784
31189,11497,5415,-440,-7829,-2482,3768
31199,10752,5649,126,-7392,-2541,3636
31209,10309,6720,664,-6988,-2656,3501
31219,9808,7516,1463,-7058,-2816,3355
31229,9041,8056,1881,-7492,-3072,3100
31239,8244,8217,2796,-7921,-3437,2786
31249,7453,7380,3721,-7764,-3980,2556
31260,7427,4902,4265,-6873,-4301,2330
31270,7507,3242,4970,-5835,-4032,2134
31280,7706,2743,5733,-4501,-3544,1642
31290,7670,2585,6806,-3404,-3110,1284
31300,7082,2306,7094,-2393,-2764,1028
31310,6379,1619,6421,-1146,-2408,687
31320,5603,1649,5904,4,-1962,446
31330,5505,1518,5123,1207,-1379,272
31340,5196,1412,4847,2295,-721,281
31350,5052,1377,5104,2855,-124,-29
31360,4756,1246,6047,2346,169,-309
31370,3961,1077,5539,1694,141,-911
31380,3761,522,4362,1567,160,-1359
31390,3924,-16,3458,1611,202,-1622
31400,4132,-182,3014,1448,186,-1857
31410,4188,-69,2459,1123,36,-2150
31420,4261,-182,2116,798,-239,-2442
31430,4332,-404,1748,246,-555,-2769
31440,4523,-79,1044,-437,-801,-3179
31450,4820,496,319,-685,-891,-3589
31460,5250,567,201,-982,-919,-3791
31470,5626,368,62,-1682,-952,-4015
31480,5986,375,-243,-2389,-900,-4375
31490,6313,80,-525,-2616,-828,-4704
31500,6589,-384,-679,-3002,-846,-4814
31511,6979,-354,-917,-3648,-812,-5086
31521,7438,-201,-1256,-4332,-728,-5359
31531,7743,-233,-1518,-5099,-658,-5451
31541,7900,-251,-1758,-5938,-563,-5556
31551,8202,-61,-1975,-6838,-410,-5671
31561,8705,366,-2174,-7816,-214,-5699
31571,9287,681,-2412,-8693,25,-5638
31581,9762,955,-2672,-9706,302,-5469
31591,10171,1135,-3058,-10740,637,-5267
31601,10487,1248,-3571,-11752,1000,-4936
31611,10474,1254,-4460,-12611,1389,-4431
31621,10406,1223,-5229,-13422,1817,-3839
31631,10156,1157,-5588,-14166,2257,-3177
31641,9891,1360,-6007,-14662,2568,-2546
31651,9465,1318,-5986,-14767,2768,-1744
31661,9062,1106,-6090,-14893,2839,-899
31671,8467,1341,-5640,-15020,2982,-312
31681,7560,1384,-5193,-14594,2804,326
31691,6323,1124,-5030,-14072,2347,1193
31701,5783,957,-5009,-13238,1920,1987
31711,5715,552,-5083,-12158,1582,2893
31721,5973,-307,-4580,-11250,1555,3823
31731,6266,-1238,-4666,-10291,1561,4537
31741,6616,-1966,-4530,-9364,1738,5109
31751,6925,-2312,-5543,-8655,1933,5353
31762,7863,-2901,-5600,-7446,2512,5519
31772,7689,-3256,-5254,-6184,3176,5501
31782,6902,-2945,-4695,-4696,3654,5110
31792,6112,-2144,-4085,-3617,4083,4957
31802,5421,-1485,-3039,-2820,4450,4792
31812,4973,-1018,-2420,-2573,4542,4484
31822,4540,-513,-1901,-2687,4488,4143
31832,4165,-429,-1861,-2822,4262,3931
31842,4274,-591,-1927,-2850,4226,3773
31852,4415,-663,-1678,-2717,4180,3738
31862,4435,-669,-1723,-2810,4111,3629
31872,4585,-1149,-2017,-2894,4056,3533
31882,4750,-1744,-2360,-2882,4118,3416
31892,4681,-1975,-2371,-2849,4190,3291
31902,4555,-2232,-2322,-2752,4109,3203
31912,4477,-2422,-2365,-2433,4000,3212
31922,4125,-2318,-1982,-2202,3833,3225
31932,3876,-2046,-1895,-2149,3541,3049
31942,3949,-1842,-1988,-2051,3294,2912
31952,3847,-1897,-1982,-1837,3062,2802
31962,3606,-1917,-2074,-1671,2814,2613
31972,3528,-1960,-2327,-1422,2626,2456
31982,3501,-2253,-2468,-1073,2444,2360
31992,3293,-2391,-2531,-780,2304,2213
32002,3135,-2150,-2515,-551,2232,2068
32013,2997,-2185,-2379,-289,2143,1999
32023,2650,-2370,-2226,-109,2031,1907
32033,2370,-2558,-2053,85,1922,1796
32043,2047,-2672,-1789,207,1751,1683
32053,1907,-2848,-1645,272,1567,1551
32063,1897,-3172,-1651,386,1443,1478
32073,1908,-3445,-1688,468,1373,1393
32083,1705,-3743,-1731,554,1330,1338
32093,1560,-3969,-1870,709,1263,1301
32103,1528,-4240,-2122,993,1225,1329
32113,1425,-4352,-2028,1185,1188,1329
32123,1353,-4296,-2040,1289,1080,1263
32133,1269,-4372,-1989,1462,964,1273
32143,1182,-4460,-1878,1577,844,1257
32153,1186,-4622,-1760,1689,708,1232
32163,1194,-4720,-1651,1809,623,1233
32173,1245,-4783,-1631,1958,545,1252
32183,1226,-4659,-1324,1985,506,1263
32193,1179,-4787,-1277,1993,415,1226
32203,1014,-4866,-1165,2127,365,1232
32213,822,-4712,-1044,2246,311,1217
32223,676,-4673,-919,2305,267,1194
32233,525,-4699,-708,2366,240,1168
32243,422,-4650,-523,2420,237,1136
32254,251,-4586,-313,2491,225,1092
32264,98,-4477,-199,2608,224,1060
32274,-108,-4366,-93,2685,204,1034
32284,-227,-4361,-31,2633,201,981
32294,-303,-4408,65,2507,212,905
32304,-357,-4533,141,2416,204,796
32314,-434,-4643,148,2393,181,714
32324,-530,-4713,173,2464,162,633
32334,-724,-4775,316,2554,106,547
32344,-994,-4664,462,2659,32,490
32354,-1438,-4373,601,2753,-47,514
32364,-1981,-4118,858,2799,-143,542
32374,-2501,-3937,1250,2744,-249,554
32384,-2963,-3711,1589,2592,-361,594
32394,-3356,-3544,1842,2491,-479,683
32404,-3480,-3484,1992,2444,-529,733
32414,-3334,-3388,1957,2457,-545,758
32424,-3061,-3341,1929,2528,-531,770
32434,-2641,-3350,1818,2581,-413,721
32444,-2462,-3202,1533,2581,-358,673
32455,-2319,-2867,1589,2590,-295,644
32465,-2127,-2506,1553,2598,-221,603
32475,-2157,-2103,1494,2603,-196,637
32485,-2336,-1782,1460,2546,-224,689
32495,-2552,-1549,1257,2475,-271,709
32505,-2727,-1377,1106,2347,-311,726
32515,-2728,-1169,934,2099,-390,736
32525,-2650,-1046,704,1917,-439,789
32535,-2619,-925,456,1795,-409,920
32545,-2609,-820,72,1654,-475,988
32555,-2436,-918,55,1596,-560,1001
32565,-2069,-1030,49,1533,-571,963
32575,-1671,-930,-234,1432,-468,988
32585,-1581,-638,-372,1288,-291,1085
32595,-1661,-251,-370,1123,-128,1159
32605,-1677,-27,-95,975,-25,1209
32615,-1625,-64,2,759,18,1260
32625,-1412,65,-258,439,114,1343
32635,-1268,411,-613,140,195,1466
32645,-1151,642,-572,-329,288,1520
32656,-1124,620,-888,-672,382,1566
32666,-1025,627,-1215,-959,434,1564
32676,-815,1122,-1588,-1452,539,1572
32686,-680,1494,-2043,-1848,682,1529
32696,-663,1398,-2407,-2424,804,1534
32706,-568,1257,-2849,-2946,1006,1523
32716,-323,1119,-3415,-3278,1240,1545
32726,9,982,-3986,-3403,1543,1514
32736,438,953,-3912,-3755,1895,1514
32746,573,1206,-3819,-4289,2141,1474
32756,734,1323,-4028,-4618,2296,1405
32766,1448,1196,-4527,-4922,2524,1232
32776,2514,1254,-4950,-5468,2953,1015
32786,3665,1537,-5595,-6294,3521,626
32796,5063,1916,-7156,-6975,4080,146
32806,7199,2009,-8420,-7343,4898,-393
32816,9029,2315,-8810,-7659,5604,-1123
32826,10648,2286,-9830,-6998,6029,-1807
32836,13481,2465,-10482,-6046,6864,-2614
32846,15962,3824,-11113,-5253,7513,-4089
32857,18689,4082,-11137,-4127,7911,-6218
32867,23443,5177,-11025,-2583,7673,-8914
32877,31277,5988,-11084,-1017,6328,-12492
32887,-32768,5802,-10855,304,3416,-16230
32897,-32768,1423,-7774,2873,24,-19273
32907,-32768,-1352,1024,6066,-4343,-21580
32917,-32768,-6820,14532,10554,-9577,-22092
32927,-32768,-10253,27639,15754,-14082,-21191
32937,-32768,-16840,32767,21603,-19032,-17683
32947,-32768,-25786,29615,27510,-22426,-14240
32957,-32768,-27181,10880,-32768,-23844,-9845
32967,-32768,-17700,-12493,-32768,-25416,-5707
32977,-32768,13821,-31590,-32768,-25807,3108
32987,-32768,32767,-26248,20742,-1143,-14558
32997,24153,21781,15814,-32768,-2741,17363
33007,20422,-3443,-1423,20848,-7790,8471
33017,29814,-11313,-15015,14025,-7365,6443
33027,-32768,-10399,-21677,11376,-5901,4933
33037,-32768,5889,-15068,9465,-5220,8706
33047,31662,11193,-17583,5098,-4571,8725
33058,26845,8373,-20876,5177,-4016,9297
33068,24937,5659,-21049,7270,-2195,8568
33078,24324,6181,-18158,9810,-688,7663
33088,24746,9862,-17524,11889,893,7402
33098,23904,13202,-16051,12483,3343,7265
33108,20315,14825,-13279,12241,5068,7678
33118,16196,16469,-10323,10568,5748,7228
33128,14363,18281,-7501,7995,5832,6720
33138,11889,18419,-4636,4672,5383,6723
33148,8556,17322,-3368,1668,4211,6685
33158,5971,16972,-2571,-588,3012,6442
33168,4375,15826,-1780,-2406,1936,6130
33178,3831,14936,-1266,-4131,1213,5532
33188,3804,14536,-1603,-5262,679,5034
33198,2866,13192,-1274,-5652,336,5184
33208,1613,12022,-1281,-6086,278,5035
33218,881,9478,-645,-5778,301,4795
33228,163,7091,356,-5342,358,4410
33238,473,5245,1418,-4788,291,3746
33248,1491,2845,1948,-4002,88,3233
33259,2777,985,2353,-3400,416,2007
33269,4360,-750,1820,-2213,904,969
33279,4777,-1686,1254,-829,1314,902
33289,3800,-1336,763,650,1811,907
33299,2158,-145,1161,1619,2108,553
33309,818,1069,1664,2388,2227,-44
33319,-184,2198,2073,2620,2216,-706
33329,-553,2768,3348,2333,1988,-1684
33339,-377,3581,3720,900,1625,-2550
33349,-55,4129,3304,-424,1101,-3235
33359,778,3637,2267,-1835,623,-3775
33369,1982,2018,755,-2786,356,-4347
33379,3259,327,-676,-3144,505,-4926
33389,4084,-1155,-1061,-2369,931,-5368
33399,4180,-1851,-861,-1561,1349,-5700
33409,3945,-1253,-476,-922,1721,-6184
33419,3791,4,183,-569,1962,-6802
33429,4130,948,623,-462,2020,-7468
33439,5119,1429,841,-771,1984,-8073
33449,6665,1430,848,-1247,1970,-8653
33460,8204,862,828,-1668,1858,-9116
33470,9924,-154,507,-2049,1748,-9332
33480,12355,-1200,-273,-2156,1739,-9209
33490,14456,-4118,-763,-2297,2212,-9099
33500,15640,-7112,-1727,-2070,2461,-9403
33510,15780,-9281,-2494,-1207,2683,-9553
