t_ms,ax,ay,az,gx,gy,gz
0,1223,330,3450,134,4,1712
10,1061,894,3458,-83,-58,1547
20,1138,1046,3471,-79,-91,1448
30,1156,541,3680,-52,-84,1541
40,992,207,3708,63,-59,1549
50,1040,199,3540,90,-21,1439
60,1069,391,3808,106,0,1449
70,994,521,3672,64,-1,1371
80,842,510,3761,77,5,1395
90,774,465,3601,52,-13,1386
100,787,637,3735,22,-8,1323
111,862,746,3722,-22,-5,1337
121,812,831,3765,-53,-1,1309
131,812,877,3714,-64,5,1248
141,780,936,3643,-59,1,1202
151,718,923,3585,-71,-9,1118
161,682,926,3618,-75,-28,1038
171,614,804,3573,-60,-37,984
181,651,942,3712,-154,-72,894
191,696,926,3613,-195,-94,887
201,659,779,3664,-193,-105,901
211,576,731,3652,-451,-232,893
221,513,782,3503,-462,-190,926
231,556,702,3702,-274,-103,874
241,673,222,3701,-200,-47,879
252,694,177,3808,-237,-12,812
262,633,244,3819,-183,4,750
272,571,211,3818,-118,33,731
282,83,319,3786,2,60,582
292,329,402,3851,51,106,461
302,485,307,3891,45,138,410
312,522,237,3969,-41,130,429
322,380,125,3892,-65,89,523
332,195,137,3927,-66,61,590
342,14,143,3955,-27,64,591
352,-267,235,4183,-44,-31,749
362,278,38,4329,-230,-92,732
372,457,-92,4291,-393,-160,734
382,135,-273,4141,-331,-123,735
392,461,-274,4212,-219,-113,796
403,356,-224,4168,-305,-85,929
413,143,-206,4149,-242,-112,913
423,315,-406,4403,-230,-168,995
433,632,-381,4402,-395,-258,1104
443,1025,-1173,4716,-516,-369,903
453,2614,863,3496,-1844,30,250
463,-1217,-228,3905,155,278,454
473,-667,-14,4919,323,-365,974
483,391,-324,5044,-622,-406,1323
493,456,-943,4391,-550,-481,1273
503,815,-1202,4530,332,-353,1160
513,1227,-240,5025,709,-212,1313
523,645,195,5259,699,-224,1239
533,762,-187,5484,764,-283,1079
544,710,154,5307,930,-270,1186
554,560,1656,4878,795,-441,1373
564,1562,647,4525,139,-299,1106
574,1918,-201,3479,-265,-280,633
584,2177,-602,3367,-361,-32,-16
594,2006,-950,3439,-389,-129,-419
604,2169,-1138,3661,-359,-655,-582
614,2197,-1359,4024,-266,-1244,-839
624,2170,-1004,4273,-212,-1567,-1075
634,2142,-389,4611,-208,-1625,-1330
644,2078,218,4893,-283,-1455,-1424
654,2284,355,4944,-456,-1247,-1586
664,2181,343,4106,-1251,-662,-1483
674,2604,750,7432,-4136,4653,-2531
685,-3774,-3573,5718,-2935,181,-1701
695,-302,-851,3466,-162,-425,166
705,1326,-18,3511,-19,-246,-278
715,935,-409,3443,-702,170,-743
725,663,-800,3234,-504,-112,-806
735,1539,-654,3111,-84,-35,-1336
745,1204,-572,3699,115,98,-1595
755,690,-224,4015,253,53,-1124
765,1370,70,4094,337,-56,-910
775,1264,-8,4181,332,43,-743
785,1104,-79,3948,325,125,-726
795,978,-171,3890,423,237,-728
805,1107,-342,3966,529,332,-744
815,1155,-442,4153,607,392,-852
826,1444,-123,4427,462,332,-1083
836,631,-293,4495,177,390,-1337
846,557,-357,4346,251,320,-1489
856,709,-395,4293,325,374,-1645
866,772,-478,4136,348,423,-1823
876,783,-580,3922,337,424,-1943
886,720,-625,3669,398,461,-1987
896,960,-1344,3386,357,401,-1812
906,218,-176,3663,816,666,-1850
916,363,-749,3885,608,647,-1773
926,600,-1102,3737,491,619,-1504
936,496,-1019,3758,479,573,-1363
946,319,-863,3767,508,535,-1281
956,221,-717,3702,542,495,-1136
966,181,-587,3616,481,476,-977
977,104,-461,3509,388,447,-815
987,86,-232,3603,418,455,-757
997,-13,-227,3772,489,479,-728
1007,-17,-115,4010,411,460,-656
1017,9,-150,4078,286,391,-686
1027,28,-240,4085,201,336,-751
1037,-43,-214,4081,242,283,-832
1047,-126,-132,4212,235,215,-925
1057,-74,-46,4137,143,148,-982
1067,-63,-9,4023,85,120,-1060
1077,-20,-78,3988,79,123,-1102
1087,94,-191,3965,89,123,-1082
1097,139,-306,4025,114,122,-1096
1107,251,-405,4175,161,114,-1106
1117,265,-358,4235,194,86,-1117
1127,274,-283,4292,185,67,-1108
1137,211,-192,4308,151,32,-1070
1147,215,-176,4356,79,-7,-1029
1158,229,-190,4355,-11,-60,-996
1168,248,-210,4219,-41,-76,-972
1178,314,-152,4219,-101,-96,-907
1188,318,-155,4062,-191,-104,-823
1198,384,-298,4041,-197,-134,-732
1208,472,-444,4142,-161,-168,-662
1218,563,-575,4254,-124,-204,-672
1228,597,-648,4484,-58,-240,-717
1238,587,-605,4660,-53,-279,-755
1248,662,-563,4602,-108,-289,-796
1258,49,-608,4144,-183,-383,-873
1268,874,-597,3023,-112,-209,-928
1278,667,-319,5860,-24,-158,-715
1288,1883,-440,2940,120,-100,-924
1298,960,-500,3829,155,-143,-835
1308,852,-623,3799,232,-198,-837
1318,940,-685,3687,335,-187,-810
1328,954,-681,3737,419,-203,-766
1338,1014,-639,3806,465,-177,-701
1348,919,-461,3790,512,-168,-635
1358,810,-286,3745,523,-150,-569
1368,765,-222,3783,521,-131,-490
1378,763,-207,3907,479,-131,-414
1388,752,-217,3923,408,-155,-361
1398,741,-190,3882,318,-171,-318
1408,750,-159,3865,217,-199,-304
1418,773,-269,3815,164,-223,-315
1428,861,-372,3768,166,-222,-317
1438,903,-363,3771,210,-182,-345
1448,903,-353,3921,214,-155,-368
1458,931,-384,3941,170,-117,-361
1468,955,-388,4046,126,-88,-333
1478,939,-294,4081,118,-49,-291
1488,906,-233,4122,112,-21,-219
1498,946,-182,4081,115,-3,-100
1508,939,-174,4101,113,0,-15
1518,951,-159,4119,88,-15,31
1528,937,-119,4058,51,-49,15
1538,927,-189,3963,10,-83,-48
1548,969,-187,3846,-13,-98,-121
1558,887,-87,3711,-9,-91,-161
1568,765,18,3569,-2,-70,-192
1578,792,-12,3560,46,-26,-194
1588,844,14,3609,55,11,-185
1598,805,81,3656,89,47,-167
1608,817,90,3801,50,38,-140
1618,900,111,3905,-56,25,-124
1628,949,84,3976,-176,-7,-155
1638,867,-12,3965,-233,-4,-157
1648,869,-103,3939,-242,3,-137
1659,932,-206,3895,-192,15,-111
1669,1013,-197,3931,-209,21,-114
1679,946,-61,3863,-208,27,-99
1689,868,-46,3812,-203,30,-53
1699,858,-12,3749,-197,26,-4
1709,844,9,3726,-187,31,30
1719,835,39,3744,-180,30,60
1729,809,212,3777,-193,48,105
1739,745,297,3890,-192,68,143
1749,839,248,3892,-250,79,196
1759,833,110,3838,-163,116,244
1769,880,112,3858,-50,162,244
1779,889,68,3872,23,189,219
1789,852,-64,3861,80,205,183
1799,829,-34,3821,160,198,146
1809,765,17,3821,214,195,113
1819,739,-10,3899,150,173,123
1829,717,-7,3939,66,126,140
1839,729,-29,3926,-12,86,122
1849,746,-92,3920,-123,59,98
1859,757,-176,3906,-259,8,109
1869,781,-215,3864,-355,-35,133
1879,791,-199,3858,-398,-76,132
1889,757,-194,3839,-469,-117,127
1899,748,-112,3782,-533,-140,122
1909,800,-120,3893,-580,-143,131
1919,861,-224,3914,-645,-184,143
1929,996,-369,3900,-665,-193,199
1939,894,-413,3767,-425,-105,199
1949,871,-496,3927,-105,-6,244
1959,1114,-541,4120,45,49,251
1969,1554,-773,4160,29,79,240
1979,1164,-250,4224,185,103,29
1989,858,-80,4454,215,94,-43
1999,387,466,4544,206,119,-128
2009,281,492,4876,89,83,-110
2019,336,477,5107,-150,108,-144
2029,569,98,5143,-246,151,-263
2039,771,-128,5054,-221,195,-475
2049,579,38,4770,-96,291,-808
2059,616,-221,4608,20,251,-897
2069,76,-113,4400,-199,-48,-675
2079,-301,36,4043,-482,-306,-287
2089,286,-494,4079,-518,-275,-152
2099,304,-635,3943,-480,-196,34
2109,145,-524,3855,-333,-183,234
2120,64,-627,3889,-346,-302,965
2130,804,-68,3836,228,132,439
2140,115,19,4022,199,280,5
2150,-389,-18,4058,44,191,161
2160,119,-66,4119,70,178,355
2170,614,-123,3519,143,295,229
2180,1597,50,4463,273,482,221
2190,-2071,-175,4059,-20,-166,287
2200,1207,193,5113,174,394,283
2210,-35,-1,4226,90,125,276
2220,-74,-66,3982,70,104,203
2230,-100,-75,4019,90,118,180
2240,-65,39,4072,57,113,136
2250,-42,58,4116,30,111,109
2260,-12,-89,4166,59,123,95
2270,42,-53,4230,61,143,89
2280,-15,41,4267,30,146,111
2291,-35,41,4202,-24,136,125
2301,-36,-18,4177,-67,134,121
2311,32,-221,4166,-120,127,126
2321,142,-471,4059,-140,143,134
2331,111,-437,4085,-70,161,93
2341,42,-307,4120,-6,183,67
2351,-9,-266,4189,18,187,62
2361,48,-288,4176,24,193,48
2371,72,-329,4142,44,197,18
2381,60,-264,4066,24,203,8
2391,-49,-170,4036,16,194,7
2401,-64,-104,4054,-46,163,21
2411,-78,-94,4061,-118,129,36
2421,-53,-144,4072,-144,94,44
2431,-2,-231,3960,-118,75,52
2441,-20,-197,3977,-84,57,61
2451,-1,-256,3928,-110,18,60
2462,34,-360,3804,-2,-5,59
2472,609,-1498,3741,-82,-156,12
2482,944,-49,3146,-266,-190,-66
2492,-494,-1305,3632,439,-59,142
2502,1011,-1971,3576,126,-295,543
2512,1843,-2326,3161,-484,-422,1179
2522,424,-700,2201,-562,-560,1730
2532,-109,108,2537,187,1082,90
2542,-813,871,1514,-1167,2241,-225
2552,-2928,1187,-2334,-1109,405,80
2562,-3128,-807,-3590,3993,-1210,299
2572,-2352,4192,3364,4079,-1925,-463
2582,-11612,11097,5764,-2910,-6311,2074
2592,6282,-1036,-571,4171,1189,-7130
2602,5186,2513,6665,2249,-2362,-1996
2612,2096,3056,5014,-627,-2423,-828
2623,-5,2361,5226,-2497,-3178,-433
2633,-310,2674,4812,-3910,-3832,-806
2643,915,3016,4717,-4626,-3943,-1448
2653,741,4748,5549,-7234,-4245,-1948
2663,1552,7056,3131,-8779,-3689,-1909
2673,2038,-2121,2344,-11797,-3786,-1628
2683,4596,-7002,-816,-12135,-2761,-2164
2693,6084,-9726,-2534,-7147,-1060,-2867
2703,6166,-9482,803,-3036,-308,-2578
2713,4211,-5547,3394,-2015,169,-2019
2723,3025,-1707,3658,-1710,226,-1816
2733,2068,-117,4330,-1921,272,-1609
2743,1873,-638,4195,-3243,100,-1667
2753,2689,-1920,3595,-4110,79,-1721
2763,3367,-3030,3189,-4202,255,-1658
2773,3484,-3073,3268,-4046,359,-1517
2783,3310,-1735,3506,-4177,389,-1253
2794,2939,91,3194,-4766,228,-781
2804,2749,285,2860,-5830,89,-392
2814,2946,-939,2490,-6688,126,-257
2824,3038,-2071,1628,-6953,330,-221
2834,2830,-3327,-341,-5785,275,-460
2844,2814,-5093,-2254,-3826,109,-526
2854,2808,-6766,-3800,-1611,148,-455
2864,3398,-8042,-2903,544,706,-813
2874,3606,-6293,-1731,1902,1700,-1959
2884,4410,-991,1450,2532,2871,-2791
2894,4157,2165,3469,2132,3207,-2339
2904,3095,1633,4830,401,2476,-1187
2914,2418,-582,4112,-740,1970,-1494
2924,3013,-3648,2797,-1065,1625,-2041
2934,3252,-3463,688,-1312,1427,-2324
2944,2991,-913,-158,-1655,1325,-2289
2954,2937,512,-166,-1932,1446,-2499
2965,2606,455,231,-2138,1379,-2467
2975,2674,-85,395,-2826,868,-2234
2985,2981,-386,-376,-3456,532,-2210
2995,3386,-1012,-529,-3531,438,-2229
3005,3372,-1821,-1172,-3655,45,-2094
3015,3530,-2124,-1176,-3428,-131,-1793
3025,3810,-2009,-1608,-2932,-184,-1756
3035,4092,-2594,-1376,-2007,242,-1380
3045,4176,-3595,-850,-1999,538,-1166
3055,4707,-4604,-1315,-1545,896,-1346
3065,5151,-4681,286,-1301,1570,-1675
3075,4816,-3230,2151,-1902,2225,-1975
3085,4262,-1817,3337,-2591,2543,-2105
3095,3299,-1907,4086,-3196,2297,-1884
3105,2495,-2690,2942,-4283,1336,-1831
3115,3000,-3011,510,-4420,541,-2064
3125,4054,-3044,-673,-3735,422,-2262
3136,4883,-3061,-431,-3270,903,-2358
3146,4799,-2932,39,-3116,1429,-2325
3156,4025,-2830,448,-2661,1656,-2246
3166,3260,-2550,1083,-2484,1518,-2330
3176,3072,-1987,1696,-2509,1316,-2648
3186,3336,-1336,2023,-2779,1005,-2980
3196,3597,-927,1910,-3338,706,-3225
3206,3795,-1400,1337,-3562,210,-3399
3216,3889,-2230,804,-3555,-25,-3315
3226,4067,-3048,459,-3250,126,-3280
3236,3860,-3080,779,-3374,265,-3446
3246,4010,-2614,1779,-3830,455,-3427
3256,3579,-2498,2009,-4071,444,-3544
3266,3595,-2183,1447,-4380,391,-3615
3276,3858,-1760,1083,-4878,292,-3346
3286,4534,-1542,252,-4809,370,-3016
3296,5095,-2403,221,-4436,526,-2718
3306,5435,-2950,-106,-4246,758,-2435
3316,5497,-3310,160,-4122,1251,-1813
3326,5181,-3590,255,-3873,1953,-1474
3337,4902,-4326,441,-3194,2479,-1186
3347,4559,-5068,944,-2574,2878,-821
3357,3983,-5387,1963,-2077,2949,-687
3367,3247,-5418,2194,-1468,2527,-816
3377,2880,-4768,2752,-1527,1904,-940
3387,3033,-2904,2328,-1326,1783,-1509
3397,3407,-1504,2496,-438,1735,-1717
3407,3291,-1538,3882,-670,1397,-975
3417,3098,-1359,2642,-2002,1221,-902
3427,4200,-2822,2750,-2459,1266,-956
3437,4690,-4710,2042,-2345,1443,-675
3447,4710,-5418,1688,-1381,1845,-219
3457,4399,-4180,1707,-676,2170,-137
3467,4884,-3538,2853,-346,2489,237
3477,4126,-3582,2572,-885,2283,637
3487,4086,-4169,2396,-874,2121,1070
3497,4085,-3857,2578,-1009,2013,1462
3507,4411,-3591,2235,-1156,1880,1739
3517,4693,-4329,1936,-1288,1805,2266
3527,4483,-5063,1607,-941,1763,2566
3538,4074,-4846,1764,-577,1758,2892
3548,4176,-4773,1776,-265,1763,3246
3558,4078,-4999,1767,-51,1711,3540
3568,4041,-5106,1700,193,1675,3747
3578,4000,-5093,1714,325,1639,3965
3588,3938,-4928,1427,473,1545,4139
3598,3926,-4990,1139,647,1482,4390
3608,3814,-4983,860,820,1418,4539
3618,3629,-4940,731,1038,1332,4603
3628,3500,-4832,391,1380,1199,4660
3638,3387,-4649,246,1714,1019,4697
3648,3328,-4095,284,1889,870,4647
3658,3285,-3778,239,2077,667,4517
3668,3251,-3718,301,2274,486,4473
3678,3111,-3528,341,2336,297,4364
3688,3087,-3276,693,2321,40,4112
3698,2819,-3217,790,2238,-363,3816
3708,2958,-3356,588,2316,-681,3450
3718,3048,-3451,396,2457,-941,3138
3728,2961,-3087,137,2376,-1119,2970
3739,3081,-2596,11,2117,-1236,2732
3749,3096,-2352,-117,1766,-1336,2523
3759,3296,-1990,-184,1327,-1330,2390
3769,3433,-1389,-368,712,-1266,2278
3779,3314,-747,-434,15,-1251,2305
3789,3435,-656,-652,-269,-1238,2397
3799,3222,-1456,-674,-82,-1238,2794
3809,2909,-2571,-824,403,-1297,3045
3819,2599,-3512,-800,736,-1519,3011
3829,2606,-3652,-1014,937,-1659,2682
3839,2751,-3170,-988,1157,-1726,2338
3849,2828,-2244,-883,1291,-1766,1986
3859,2823,-1424,-286,1299,-1774,1798
3869,2500,-859,34,1026,-1849,1690
3879,2244,-513,42,704,-1936,1552
3889,2205,-530,243,521,-1988,1420
3899,2239,-721,551,225,-2050,1301
3909,2314,-666,549,-77,-2137,1128
3919,2502,-762,667,-182,-2192,1004
3929,2501,-1017,872,-314,-2195,924
3940,2389,-1190,1076,-536,-2200,736
3950,2320,-1086,941,-745,-2229,517
3960,2424,-943,523,-723,-2213,426
3970,2588,-1186,750,-574,-2116,435
3980,2636,-1509,1092,-802,-2033,385
3990,2659,-1669,1150,-997,-1953,228
4000,2726,-1835,1101,-933,-1890,116
4010,2856,-2135,1348,-811,-1808,123
4020,2933,-2331,1534,-890,-1745,92
4030,3058,-2361,1621,-855,-1614,-91
4040,3204,-2411,1955,-707,-1473,-231
4050,3149,-2369,2231,-679,-1430,-301
4060,3104,-2243,2291,-711,-1462,-357
4070,3241,-2259,2194,-643,-1440,-350
4080,3415,-2515,2480,-658,-1359,-294
4090,3543,-2658,2489,-775,-1267,-331
4100,3594,-2702,2436,-750,-1148,-383
4110,3550,-2757,2440,-770,-1098,-402
4120,3567,-2768,2379,-842,-1042,-453
4130,3699,-2773,2254,-830,-953,-526
4141,3816,-2767,2289,-814,-891,-538
4151,3820,-2674,2386,-814,-899,-541
4161,3669,-2605,2394,-751,-930,-577
4171,3459,-2639,2391,-608,-1021,-600
4181,3264,-2588,2548,-503,-1121,-607
4191,3167,-2477,2441,-410,-1200,-648
4201,3194,-2606,2503,-207,-1247,-633
4211,3195,-2863,2708,-190,-1283,-547
4221,3116,-2963,2573,-145,-1282,-542
4231,2953,-2927,2572,-31,-1263,-548
4241,2946,-2774,2483,72,-1279,-520
4251,3203,-2743,3073,56,-1274,-357
4261,3263,-2877,3082,-114,-1326,-311
4271,3277,-3124,3025,63,-1315,-327
4281,3121,-3189,3129,290,-1300,-309
4291,2983,-2763,3047,349,-1257,-354
4301,2990,-2221,2819,354,-1203,-414
4311,2992,-2058,2620,445,-1109,-348
4321,2883,-2341,2670,580,-1082,-273
4331,2748,-2469,2298,845,-1085,-293
4341,2839,-2399,2384,1373,-996,-177
4351,2748,-2019,3050,1291,-960,-6
4361,2437,-1891,3161,1048,-1056,-118
4371,2297,-2404,3241,993,-1170,-214
4381,2122,-2934,3232,822,-1270,-276
4392,2100,-3246,2963,735,-1327,-352
4402,2156,-3745,2830,745,-1215,-354
4412,2045,-4122,2735,764,-1060,-456
4422,1697,-4198,2402,1118,-866,-483
4432,1137,-4121,2436,1687,-824,-490
4442,778,-3842,2385,2173,-883,-616
4452,725,-3393,2289,2387,-977,-730
4462,839,-2963,2127,2247,-1065,-750
4472,956,-2651,2004,1909,-1063,-674
4482,1229,-2480,1889,1961,-1026,-654
4492,1658,-2223,1512,2165,-878,-339
4502,1844,-2830,1437,2642,-856,284
4512,2019,-3468,1948,2334,-808,667
4522,2212,-3321,1552,1697,-617,774
4532,2434,-3122,1387,1482,-335,1069
4542,2251,-3338,1776,1309,-85,1405
4552,2051,-3516,1746,1186,198,1605
4562,1802,-3936,2661,1444,423,1812
4572,1270,-4501,3317,1738,437,1838
4582,521,-4493,2728,2162,89,1814
4592,644,-3289,1889,2347,-390,1388
4602,1114,-1481,1295,2236,-524,1198
4612,914,-542,1195,1679,-729,1252
4622,937,-867,1186,987,-909,1180
4632,1202,-1793,1144,562,-999,1121
4643,1582,-2520,1102,553,-965,1039
4653,1886,-2765,1098,804,-902,1036
4663,2072,-2825,1405,1141,-850,1104
4673,2194,-2696,1786,1216,-815,1107
4683,2198,-2589,1926,1114,-875,1053
4693,2275,-2866,1829,969,-1016,1004
4703,2442,-3369,1576,908,-1104,1036
4713,2484,-3731,1459,932,-1093,1099
4723,2494,-3648,1143,870,-1053,1153
4733,2532,-3592,1076,879,-1011,1278
4743,2477,-3751,968,770,-994,1366
4753,2442,-3859,772,702,-912,1386
4763,2389,-3766,434,698,-824,1400
4773,2298,-3673,298,771,-746,1420
4783,2142,-3585,207,875,-693,1418
4793,1934,-3453,286,903,-637,1416
4803,1786,-3186,281,742,-567,1408
4813,1670,-3231,173,532,-612,1381
4823,1826,-3778,-197,385,-597,1419
4833,1930,-4251,-809,353,-521,1464
4843,2136,-4734,-1050,455,-447,1487
4853,2229,-5118,-1334,523,-445,1514
4863,2433,-5263,-1410,594,-367,1576
4873,2414,-5165,-1392,446,-375,1698
4883,2411,-5446,-1405,326,-427,1828
4894,2477,-5992,-1426,187,-468,1938
4904,2717,-6327,-1537,117,-455,2031
4914,3364,-6545,-1788,-53,-420,2098
4924,4033,-7170,-2055,-61,-466,2234
4934,4411,-7778,-2290,96,-453,2491
4944,4313,-7821,-2271,52,-419,2721
4954,4109,-7822,-2175,-68,-489,2914
4964,4321,-8175,-2350,-110,-473,3166
4974,4924,-8765,-2326,-202,-406,3461
4984,5915,-9195,-2784,-304,-308,3754
4994,6058,-9812,-3001,-156,-417,4177
5004,5747,-9920,-2584,-9,-497,4579
5014,5819,-9413,-2212,-151,-728,4919
5024,5791,-9181,-1507,-244,-1112,5421
5034,5698,-8983,-755,-293,-1549,5837
5044,5863,-8106,-97,-492,-1691,6253
5054,5817,-7794,-101,-520,-2003,6490
5064,6102,-7748,379,-223,-2014,6717
5074,6118,-6879,719,71,-1970,6860
5084,5844,-6439,795,278,-2063,6954
5094,5765,-6105,952,587,-2214,7079
5104,5574,-5608,1056,972,-2439,7149
5114,5433,-5165,1254,1432,-2736,7082
5124,5299,-4644,1380,1848,-2952,7025
5134,5409,-4097,1443,1963,-3156,6918
5145,5680,-3710,1545,2194,-3359,6728
5155,5899,-3116,1203,2469,-3434,6575
5165,6162,-1845,781,2610,-3416,6371
5175,6638,-256,244,2468,-3519,6023
5185,7262,953,-26,2383,-3683,5860
5195,8032,1675,-167,2401,-3885,5724
5205,8772,1787,-78,2507,-4208,5563
5215,9278,1733,109,2613,-4486,5298
5225,9702,2109,5,2787,-4597,4775
5235,9783,2765,-145,2751,-4647,4069
5245,9875,4068,-132,2601,-4690,3285
5255,9794,5613,462,2611,-4868,2546
5265,9678,6899,967,2886,-5174,2158
5275,9503,7459,1573,2718,-5660,1359
5285,10385,8187,738,2477,-6046,-74
5295,12281,9296,368,2830,-6036,-1524
5305,14595,10607,79,3294,-5882,-2928
5315,15430,12212,786,3081,-6070,-4294
5325,15874,13856,-60,2192,-6246,-5939
5335,18064,13336,-1173,1185,-6290,-8419
5345,23456,12941,-3355,-561,-6571,-11582
5355,31122,9881,-5105,-3534,-6999,-14333
5365,-32768,3896,-7427,-7424,-7408,-16257
5375,-32768,-4624,-9546,-12276,-6324,-17722
5385,-32768,-13936,-9996,-17405,-3619,-20003
5396,-32768,-18706,-11252,-21321,-226,-21857
5406,-32768,-21492,-11819,-24105,3902,-21421
5416,-32768,-22698,-10551,-26528,7603,-20371
5426,-32768,-17771,-6825,-28917,10214,-19896
5436,27880,-10130,-1671,-29642,10898,-17073
5446,32650,-32768,-28776,-15400,9737,-11699
5456,-15154,13209,32767,-639,6461,-7343
5466,20881,32767,-17479,-27449,6755,-18857
5476,-32768,-14846,-6318,-15138,9778,7637
5486,16884,-32513,5420,-12046,7551,-5652
5496,13764,-3707,8002,-8129,11136,-1950
5506,15818,9103,7063,-9687,11209,-424
5516,14667,-8791,1737,-9235,8778,2068
5526,12361,-5289,2481,-6205,8344,2125
5536,12915,-4585,2809,-4257,7602,3134
5546,12292,-4872,3754,-3235,6849,3404
5556,11070,-3537,3950,-2660,6246,3480
5566,10041,-4366,3345,-1886,5712,3642
5576,9479,-4446,2530,-1162,5183,3719
5586,8832,-3830,1901,-833,4366,3566
5596,8221,-4086,1671,-480,3672,3606
5606,7796,-4310,1422,-59,3055,3682
5616,7489,-4317,1157,347,2510,3779
5626,7306,-4078,773,707,2014,3824
5636,7060,-3296,485,765,1545,3779
5647,6693,-2594,-39,770,1033,3688
5657,6127,-2635,-493,824,561,3586
5667,5588,-2491,-1061,962,192,3489
5677,4997,-2140,-1432,1061,-104,3392
5687,4551,-1832,-1889,1210,-322,3234
5697,4160,-1559,-2422,1375,-476,3112
5707,3821,-1283,-2858,1537,-465,3070
5717,3313,-816,-3269,1630,-388,3063
5727,2615,-345,-3523,1793,-278,3045
5737,1869,-137,-3734,1946,-215,3059
5747,1051,-198,-3827,1963,-333,2965
5757,179,-153,-3786,1788,-620,2773
5767,-506,193,-4045,1690,-936,2579
5777,-910,556,-4208,1634,-1215,2462
5787,-1039,593,-4176,1669,-1374,2386
5797,-1135,321,-3891,1527,-1567,2314
5807,-1066,-332,-3676,1586,-1764,2213
5817,-926,-853,-3285,1319,-1971,2160
5827,-749,-888,-3091,1170,-2157,2079
5837,-644,-806,-2861,891,-2266,2049
5847,-449,-910,-2716,683,-2473,2055
5857,-58,-1427,-2226,687,-2664,2134
5867,351,-1992,-2158,665,-2662,2223
5877,644,-2558,-2180,686,-2683,2159
5887,1182,-2918,-1808,624,-2647,2061
5898,1741,-2675,-1465,635,-2600,1970
5908,1970,-2319,-870,760,-2788,1803
5918,1557,-2095,-160,737,-3220,1683
5928,1189,-1797,168,536,-3685,1469
5938,1298,-1515,254,165,-4131,1130
5948,1770,-1437,406,-66,-4457,862
5958,2013,-1563,955,-78,-4764,718
5968,2238,-1442,1158,-51,-5018,527
5978,2589,-1035,1096,149,-5175,342
5988,2755,-535,1061,188,-5317,122
5998,2739,-56,1272,41,-5518,-157
6008,2522,113,1773,-61,-5804,-441
6018,2547,217,2981,-144,-6299,-770
6028,2650,179,3681,465,-6652,-965
6038,2755,336,3979,833,-6765,-1172
6048,3087,1052,3504,788,-6671,-1456
6058,3200,1419,3357,774,-6431,-1614
6068,2798,1241,4583,667,-6623,-1807
6078,2858,1064,5016,803,-6571,-2136
6088,2933,1360,5076,661,-6423,-2418
6098,2890,2253,4433,363,-6094,-2628
6108,3120,2676,4988,205,-5573,-2786
6118,3161,2645,6240,-29,-5209,-2855
6128,2929,2600,6478,-475,-5020,-2965
6138,3011,2899,4514,-923,-4520,-3062
6149,2971,2792,3876,-492,-3785,-3033
6159,2881,2152,5606,63,-3118,-3284
6169,2674,2180,6096,-172,-3020,-3598
6179,2380,3448,4714,-493,-2957,-3691
6189,2338,3960,5708,-313,-2705,-3656
6199,2243,3842,6539,-1411,-2648,-3534
6209,2127,3410,6954,-2525,-2636,-3540
6219,2375,2529,7073,-3308,-2670,-3805
6229,3091,1957,6716,-3906,-2693,-4077
6239,4054,1764,6297,-4365,-2557,-4218
6249,4990,1938,5178,-5030,-2290,-4176
6259,5805,1166,3813,-4934,-1694,-4045
6269,6535,-1006,3901,-4432,-1260,-3763
6279,6791,-2440,3070,-4438,-942,-3497
6289,6512,-2833,1988,-3753,-612,-3396
6299,5898,-2690,1609,-2750,-217,-3311
6309,5169,-2284,2019,-1988,-3,-2997
6319,4112,-1422,2417,-1861,39,-2505
6329,3373,-495,2785,-2132,-12,-2203
6339,3026,-147,2699,-2450,-220,-2139
6350,2991,-249,2962,-2788,-407,-1976
6360,3139,-234,2990,-3315,-609,-1795
6370,3535,-295,2643,-3818,-772,-1614
6380,4177,-497,2260,-4456,-909,-1251
6390,4473,-773,1545,-5134,-946,-886
6400,4700,-1132,917,-5568,-888,-538
6410,4894,-1398,692,-5870,-830,-260
6420,5042,-1363,730,-6211,-862,-32
6430,5441,-1266,707,-6406,-939,39
6440,6194,-1750,859,-6203,-1037,116
6450,6544,-2585,776,-5723,-1088,324
6460,6138,-3373,680,-4822,-979,646
6470,5123,-3772,890,-3784,-759,957
6480,4135,-3538,1082,-2973,-541,1143
6490,3975,-2639,893,-2454,-427,1309
6500,4881,-1621,789,-2076,-312,1498
6510,6635,-1005,834,-1918,-153,1601
6520,8829,-711,646,-1919,60,1525
6530,10986,-574,397,-1717,241,1406
6540,12520,-355,18,-1115,328,1444
6551,12674,83,-304,-139,369,1529
6561,11278,555,-254,871,312,1445
6571,8852,1362,321,1362,252,1543
6581,6757,2162,1004,1199,138,1538
6591,5238,2639,1277,498,-128,1527
6601,4429,2336,1017,-157,-324,1267
6611,3813,1400,827,-654,-397,1059
6621,3497,352,752,-932,-443,665
6631,3448,-375,871,-1022,-490,346
6641,3262,-1006,633,-794,-501,70
6651,3089,-1659,849,-397,-475,-129
6661,2786,-1965,1294,-295,-428,-208
6671,2304,-1885,1417,-327,-293,-235
6681,1675,-1615,1294,-324,-270,-294
6691,1193,-1782,656,-275,-291,-273
6701,1215,-2206,142,-287,-378,-306
6711,1192,-2009,-85,-895,-161,-7
6721,687,-1457,-466,-494,43,-106
6731,487,-1416,-189,165,310,-297
6741,101,-1806,-544,640,320,-45
6752,4,-2393,-642,1413,207,247
6762,218,-2346,-107,1931,180,308
6772,550,-1488,135,2115,351,387
6782,763,-559,471,2289,506,621
6792,841,-173,1178,2173,655,832
6802,829,-72,1299,1639,656,925
6812,789,-284,1072,1235,552,1018
6822,692,-843,1117,987,387,1111
6832,645,-1447,1326,758,189,1161
6842,733,-1865,1302,534,80,1188
6852,799,-2135,1202,323,75,1282
6862,658,-2003,1118,148,165,1232
6872,530,-1389,953,205,343,923
6882,750,-732,1096,267,369,680
6892,1481,-560,1423,-66,203,429
6902,3168,-1439,1703,-394,-39,-18
6912,5520,-3583,1427,-152,-25,-407
6922,7741,-6588,1201,858,151,-375
6932,8952,-8504,1121,2054,404,-84
6942,8459,-7981,1154,2816,694,167
6953,7363,-5717,920,2602,831,161
6963,6281,-4346,1954,1879,794,547
6973,4992,-3762,1776,522,369,696
6983,5646,-3671,852,-18,239,624
6993,6412,-3856,577,-34,140,681
7003,5992,-3832,1361,248,-37,567
7013,5091,-3076,2544,621,-137,478
7023,4715,-1849,3233,753,-26,680
7033,4054,-654,4538,573,58,956
7043,3263,-40,5251,534,108,1176
7053,2818,193,5518,447,371,1397
7063,2629,620,4794,138,850,1263
7073,2952,516,4544,-10,1208,986
7083,3339,-464,4926,-7,1129,860
7093,3377,-1355,4229,-264,749,678
7103,3371,-2376,4321,-279,336,592
7113,3077,-3413,4125,244,-75,627
7123,2799,-3167,4514,754,-381,482
7133,2667,-1606,4174,1122,-1107,352
7143,3619,-39,699,3082,-1495,754
7154,5192,637,-782,3861,-1765,1738
7164,6150,1187,-61,2326,-1566,2067
7174,6116,466,1717,1436,-1230,1713
7184,5521,-696,1766,1302,-1394,1926
7194,6199,-276,439,678,-1420,2002
7204,7794,997,-565,-325,-895,1945
7214,8097,1789,106,-1362,208,2279
7224,5241,1710,1161,-2479,790,2077
7234,3334,-85,522,-2000,550,1820
7244,3093,195,-97,-2585,-130,1387
7254,4596,2798,-1157,-2807,-427,241
7264,4672,3653,-1219,-2719,-553,203
7274,3949,2551,-1133,-2579,-746,329
7284,3549,1654,-176,-2885,-884,78
7294,3850,2008,-408,-3305,-962,-137
7304,4382,1971,243,-3272,-926,265
7314,3845,1333,343,-3838,-981,495
7324,3739,624,-373,-4273,-874,427
7334,3966,-50,-252,-4170,-523,548
7344,3632,-134,-12,-4188,-193,518
7355,3488,74,45,-4025,36,428
7365,3401,13,546,-3700,337,423
7375,3165,17,973,-3629,603,213
7385,3086,45,1294,-3492,762,33
7395,2814,177,1218,-3384,820,-103
7405,3096,37,1082,-3337,847,-157
7415,3720,-74,661,-3327,949,-216
7425,4820,-464,426,-3192,1113,-265
7435,5683,-963,196,-3026,1277,-333
7445,6244,-1155,-258,-2897,1476,-527
7455,6313,-1283,-415,-2752,1715,-663
7465,5950,-1327,-396,-2702,1830,-808
7475,5885,-1188,-308,-2757,1822,-948
7485,6268,-900,-649,-2861,1765,-1052
7495,6571,-1050,-739,-2881,1817,-1122
7505,6560,-1338,-853,-2911,1786,-1285
7515,6575,-1518,-1031,-2746,1741,-1488
7525,6481,-1609,-1151,-2570,1717,-1644
7535,6262,-1915,-1005,-2370,1712,-1787
7545,5770,-2272,-917,-2144,1654,-1893
7556,5240,-2399,-741,-2027,1629,-1958
7566,4795,-2493,-315,-1920,1674,-1916
7576,4129,-2498,-101,-2001,1597,-1790
7586,3681,-2300,99,-1984,1568,-1682
7596,3214,-2063,243,-2074,1536,-1490
7606,2982,-1815,251,-2156,1532,-1339
7616,3020,-1665,392,-2242,1531,-1142
7626,3136,-1458,468,-2471,1527,-984
7636,3297,-1434,296,-2661,1489,-865
7646,3406,-1616,215,-2683,1530,-715
7656,3593,-2022,145,-2596,1587,-618
7666,3800,-2135,74,-2464,1598,-570
7676,4064,-1840,247,-2520,1595,-613
7686,4201,-1746,241,-2475,1562,-551
7696,4049,-1804,350,-2474,1551,-412
7706,3806,-1644,319,-2544,1498,-409
7716,3630,-1364,145,-2582,1438,-343
7726,3400,-968,-69,-2704,1325,-277
7736,3274,-799,23,-2939,1190,-308
7746,3169,-952,76,-3103,1064,-307
7757,3056,-1304,-28,-3132,946,-271
7767,3132,-1659,86,-3041,942,-288
7777,3171,-1768,330,-2935,1005,-337
7787,3117,-1511,486,-2910,1087,-397
7797,3174,-1109,372,-3132,1089,-392
7807,3233,-911,-43,-3415,1072,-358
7817,3373,-1371,-399,-3230,1154,-448
7827,3357,-2020,-247,-3024,1142,-404
7837,2999,-2013,-327,-3149,1034,-563
7847,3043,-1687,-592,-2990,941,-811
7857,3216,-1596,-448,-2878,886,-729
7867,3248,-1647,-215,-3173,857,-625
7877,3278,-1727,-390,-3431,848,-624
7887,3221,-1967,-489,-3437,897,-518
7897,3061,-2253,-531,-3469,918,-348
7907,3007,-2418,-809,-3634,975,-305
7917,3181,-2566,-913,-3773,1080,-346
7927,3269,-2754,-1094,-3853,1187,-369
7937,3297,-2704,-1036,-4037,1240,-378
7947,3247,-2686,-1623,-3980,1178,-401
7958,3271,-2928,-1699,-3801,1094,-303
7968,3181,-3209,-2034,-3764,955,-199
7978,3117,-3245,-2443,-3703,930,-155
7988,3143,-3285,-2310,-3710,926,-65
7998,2951,-3291,-2313,-3826,850,28
8008,2787,-3321,-2022,-3839,760,134
8018,2583,-3427,-2086,-3862,575,250
8028,2511,-3230,-2427,-3933,493,317
8038,2711,-2842,-2933,-3802,526,380
8048,2946,-2772,-3328,-3636,678,560
8058,2952,-2982,-3699,-3763,874,716
8068,2997,-3297,-3943,-3954,1101,692
8078,3015,-3588,-4413,-3956,1469,713
8088,2812,-3730,-3915,-4115,1999,704
8098,2582,-3894,-3739,-4357,2195,439
8108,2180,-4230,-3879,-4155,2320,274
8118,1754,-4356,-3770,-3864,2426,231
8128,1549,-3645,-5640,-3590,2466,259
8138,2621,-2606,-7977,-3349,2593,242
8148,4186,-2962,-10262,-2783,2956,210
8159,5615,-3943,-11299,-2354,3224,-166
8169,6880,-3627,-11059,-1902,3186,-588
8179,7405,-2498,-11553,-1225,2010,-1047
8189,8307,-1806,-12672,-416,430,-845
8199,10094,-3358,-13464,-81,-1350,-639
8209,14084,-6277,-13441,-209,-2900,-137
8219,15967,-3666,-12051,-1055,-4576,-85
8229,15145,-3431,-8167,-547,-6334,263
8239,15082,-3689,-4536,534,-7873,323
8249,15086,-1022,-1532,1583,-9464,27
8259,13918,-2465,2043,3514,-10996,131
8269,12720,-1192,3284,5852,-11813,285
8279,11406,-581,5313,8245,-11826,442
8289,9720,-858,3169,9269,-11416,363
8299,12113,672,-733,8950,-9544,300
8309,12487,15964,10415,1413,-7871,-1829
8319,14856,-12098,-1445,7702,-6251,3445
8329,2918,-15363,-151,9657,-5020,3811
8339,4972,931,-6038,11298,-3664,-749
8349,5984,7663,-5177,11053,-3229,3213
8360,7859,6878,3009,5079,-2022,3378
8370,5014,-1573,-2497,1805,-2366,3533
8380,3129,-6862,-5438,2646,-3578,3482
8390,5452,-9018,-6938,3369,-4185,3274
8400,8134,-7418,-8543,6911,-3413,2707
8410,9262,-3198,-6631,10229,-2391,2729
8420,8776,1099,-4800,10794,-1378,3283
8430,7775,4022,-1846,10840,-664,3646
8440,6263,5176,913,9384,-537,3859
8450,4733,5167,1900,7000,-707,3975
8460,3720,4132,2300,4796,-941,3827
8470,3141,2506,2221,3128,-1093,3615
8480,2811,1331,1703,1922,-1191,3320
8490,2773,823,1094,1090,-1118,2914
8500,2844,744,701,382,-917,2544
8510,2774,667,200,-84,-631,2328
8520,2335,376,-197,-227,-437,2203
8530,1807,-69,-341,-433,-321,2137
8540,1287,-520,-498,-456,-245,2035
8550,933,-896,-461,-264,-204,1816
8561,831,-1123,-360,-102,-242,1597
8571,917,-1328,-334,199,-326,1438
8581,1008,-1494,-175,419,-416,1334
8591,1083,-1383,-124,506,-494,1198
8601,1146,-1084,-149,534,-528,1065
8611,1084,-781,-30,422,-559,962
8621,972,-545,19,164,-626,856
8631,901,-481,-35,-74,-663,743
8641,829,-657,-241,-290,-712,644
8651,719,-884,-276,-398,-733,514
8661,644,-1050,-238,-364,-747,330
8671,652,-1101,-61,-405,-783,136
8681,714,-1111,41,-481,-819,-39
8691,708,-1187,113,-507,-891,-203
8701,703,-1332,49,-522,-1008,-373
8711,692,-1536,70,-508,-1120,-533
8721,687,-1714,113,-534,-1224,-647
8731,621,-1683,120,-659,-1353,-757
8741,653,-1532,76,-706,-1535,-863
8751,761,-1624,89,-557,-1713,-957
8762,946,-2002,183,-456,-1876,-1025
8772,1233,-2586,265,-391,-1967,-1102
8782,1527,-3133,212,-419,-1983,-1161
8792,1532,-3586,323,-195,-1975,-1212
8802,1367,-3924,918,55,-1913,-1228
8812,1208,-3849,1412,50,-1921,-1256
8822,1359,-3434,1303,-23,-1873,-1293
8832,1514,-3210,1022,-9,-1806,-1298
8842,1561,-3494,1049,-38,-1718,-1276
8852,1389,-3904,1336,-220,-1582,-1303
8862,1436,-4145,2003,-330,-1452,-1466
8872,1429,-3946,2544,-564,-1407,-1570
8882,1408,-3517,2774,-851,-1421,-1688
8892,1432,-3160,2760,-1360,-1428,-1871
8902,1581,-2836,2392,-2101,-1235,-2015
8912,1617,-2699,1962,-2721,-1017,-2081
8922,1468,-3068,1822,-3071,-786,-2130
8932,1337,-3765,2061,-3284,-531,-2231
8942,1197,-4188,1980,-3198,-338,-2428
8952,1180,-4248,2661,-2991,-252,-2631
8963,1159,-4337,2759,-2482,-315,-2792
8973,1171,-4605,2145,-1571,-518,-2800
8983,1354,-4244,2017,-1189,-616,-2816
8993,2043,-3432,1914,-1318,-553,-2948
9003,2088,-3234,1961,-1811,-421,-3029
9013,2031,-3466,1908,-2446,-417,-3211
9023,2408,-4152,1716,-2610,-413,-3280
9033,2733,-5184,2002,-2197,-466,-3220
9043,2858,-6023,2520,-1581,-561,-3102
9053,2837,-6142,3042,-895,-615,-3045
9063,2821,-5592,3683,-443,-642,-3019
9073,2793,-5091,3982,-191,-654,-2959
9083,2855,-5012,4313,-199,-569,-2858
9093,2986,-5000,4651,-564,-471,-2795
9103,3112,-4815,4552,-829,-285,-2816
9113,3223,-5065,4433,-625,-93,-2741
9123,3070,-5450,4369,-407,148,-2598
9133,2993,-5210,3987,-259,412,-2601
9143,3243,-4654,3617,-36,765,-2593
9153,3428,-4290,3390,133,1015,-2463
9164,3463,-3994,2908,186,1104,-2370
9174,3607,-3593,2206,275,1151,-2384
9184,3839,-3169,1729,469,1165,-2426
9194,4154,-2947,1802,395,1194,-2323
9204,4185,-2846,1643,186,1197,-2313
9214,4236,-2863,1141,116,1113,-2244
9224,4387,-3065,662,399,1125,-2070
9234,4454,-3277,375,784,1031,-1954
9244,4494,-3164,-87,1258,950,-1945
9254,4556,-2753,-109,1794,864,-1892
9264,4551,-2201,252,1977,845,-1829
9274,4495,-1677,477,1745,835,-1852
9284,4558,-1437,394,1465,872,-1825
9294,4554,-1503,380,1190,876,-1688
9304,4475,-1690,385,823,858,-1620
9314,4375,-1779,396,430,797,-1604
9324,4196,-1955,354,187,740,-1516
9334,3848,-2386,455,100,690,-1386
9344,3398,-2862,366,169,564,-1284
9354,3121,-3117,253,373,457,-1216
9364,3105,-2994,368,631,355,-1155
9374,3124,-2750,629,796,263,-1137
9384,3130,-2542,824,738,158,-1128
9394,3077,-2537,949,543,92,-1054
9404,3003,-2674,1100,239,78,-983
9415,2971,-2802,1017,-89,103,-981
9425,3083,-2905,671,-293,157,-950
9435,3226,-3090,485,-442,252,-865
9445,3269,-3245,452,-678,349,-797
9455,3299,-3464,297,-753,406,-804
9465,3342,-3735,99,-668,402,-761
9475,3388,-4005,-108,-463,363,-664
9485,3545,-4025,-193,-172,303,-572
9495,3784,-3781,-304,160,355,-476
9505,3955,-3402,-202,464,400,-356
9515,4027,-3028,-45,572,391,-207
9525,4126,-2731,-62,459,331,-109
9535,4263,-2535,-61,309,273,-58
9545,4301,-2388,3,103,233,-7
9555,4199,-2254,24,-93,178,18
9565,4055,-2087,155,-255,132,100
9575,3853,-1906,222,-466,19,133
9585,3857,-1791,29,-625,-126,105
9595,4081,-1804,-212,-592,-189,163
9605,4147,-1978,-78,-525,-183,276
9615,4018,-1986,-129,-577,-212,268
9625,4008,-1823,-274,-536,-219,180
9635,4092,-1571,-389,-440,-199,185
9645,3999,-1449,-276,-288,-145,282
9655,3680,-1427,-96,-254,-169,358
9666,3302,-1311,64,-289,-227,381
9676,2952,-1202,194,-220,-313,409
9686,2602,-1206,466,-184,-405,469
9696,2336,-1184,565,-259,-532,463
9706,2298,-1154,487,-238,-644,427
9716,2393,-1167,567,-162,-708,444
9726,2499,-1251,555,-130,-765,438
9736,2705,-1375,438,-21,-837,356
9746,2902,-1457,361,129,-879,278
9756,3082,-1456,297,277,-903,231
9766,3145,-1415,269,427,-893,178
9776,3196,-1336,291,486,-875,123
9786,3253,-1176,163,474,-837,66
9796,3281,-1175,193,586,-766,96
9806,3203,-1346,388,612,-715,133
9816,3205,-1452,549,469,-677,82
9826,3328,-1402,681,285,-650,3
9836,3475,-1297,767,79,-614,-56
9846,3611,-1297,840,-68,-601,-82
9856,3793,-1355,954,-297,-586,-81
9866,4026,-1374,1018,-647,-593,-69
9876,4348,-1377,927,-893,-600,-95
9886,4774,-1448,841,-1006,-542,-102
9896,5166,-1666,778,-924,-448,11
9906,5456,-1895,680,-784,-386,93
9917,5746,-1858,575,-626,-336,107
9927,5791,-1294,566,-413,-173,122
9937,5499,-633,758,121,96,229
9947,4666,-159,1768,516,237,378
9957,3664,254,2132,483,56,263
9967,3543,622,1395,850,-126,30
9977,4417,808,1141,1452,-167,-80
9987,5763,1109,828,1590,-119,-238
9997,7274,1797,475,1477,92,-404
10007,8079,2472,309,1519,151,-318
10017,7972,2779,582,1610,-54,4
10027,7559,2892,1187,1694,-320,37
10037,7478,2840,1718,1867,-795,-568
10047,7504,2623,1186,2125,-1333,-783
10057,7236,1781,915,2279,-1346,-674
10067,6816,1238,732,1796,-916,-799
10077,6446,1013,1184,1155,-246,-1160
10087,5413,616,1469,695,79,-1323
10097,4897,-48,1444,1015,93,-1123
10107,4212,-356,1440,1005,-123,-957
10117,3912,466,1279,-233,-117,-1021
10127,3894,1479,794,-1496,-490,-1073
10137,3757,326,-914,-885,-113,-539
10147,3248,-2295,-740,1310,-445,-450
10157,3360,-2591,-501,1659,-354,3
10168,3123,-1321,276,1212,-47,301
10178,2955,-533,459,898,245,219
10188,2417,-565,804,606,646,468
10198,1789,-775,1325,550,964,781
10208,1237,-1060,1860,615,1211,979
10218,764,-1117,2263,585,1318,1011
10228,346,-843,2055,535,1277,913
10238,-146,-325,1624,622,1118,743
10248,-434,472,1036,512,897,398
10258,-400,1496,546,404,652,64
10268,-238,2060,692,568,426,28
10278,-274,1687,1245,653,228,29
10288,-34,701,1498,445,-58,-153
10298,478,-156,1449,466,-257,-262
10308,1047,-689,1346,755,-258,-151
10318,1409,-868,1050,1090,-122,-48
10328,1602,-765,672,1170,47,-16
10338,1743,-451,320,1048,174,11
10348,1879,-276,-27,863,225,40
10358,1971,-287,-214,634,221,43
10369,2010,-593,-477,697,108,12
10379,2088,-1148,-416,1011,-4,-19
10389,2228,-1694,-407,1279,-133,-67
10399,2357,-1780,208,1188,-151,-255
10409,2845,-1238,-141,1212,-177,-701
10419,4096,-888,373,1447,-82,-645
10429,5125,-1226,902,1007,-5,-437
10439,6227,-2250,860,638,-13,-558
10449,7438,-3644,1058,398,-90,-683
10459,8460,-4565,780,288,-269,-683
10469,9220,-4997,106,600,-345,-555
10479,9160,-5209,34,782,-333,-310
10489,8091,-5075,120,435,-308,-330
10499,7431,-4463,-360,-116,-114,-552
10509,7419,-3902,-715,-421,52,-546
10519,7276,-3454,-773,-614,-54,-442
10529,7024,-3199,-967,-688,-265,-434
10539,6560,-3042,-1121,-677,-480,-420
10549,6037,-2326,-1222,-695,-556,-471
10559,5693,-1259,-1282,-837,-540,-505
10570,5501,-726,-1202,-858,-586,-397
10580,5108,-863,-1151,-839,-715,-252
10590,5001,-1170,-1460,-493,-816,-299
10600,5175,-1454,-1613,301,-822,-335
10610,5339,-1587,-1393,1139,-713,-325
10620,5600,-1262,-1101,1599,-565,-365
10630,6030,-565,-775,1709,-332,-374
10640,6162,-154,-225,1580,-119,-274
10650,6033,-199,92,1346,5,-125
10660,5671,-203,14,1166,156,47
10670,5487,331,-294,1121,339,108
10680,5602,1237,-484,1150,765,330
10690,5259,1645,-884,878,972,379
10700,5786,1220,-1479,1195,1310,318
10710,6425,131,-1519,1977,1634,312
10720,6555,-567,-303,2451,1633,-163
10730,5993,-134,1227,2530,1170,-513
10740,5013,1038,2208,2101,764,-265
10750,4421,947,2762,1480,373,55
10760,3655,-292,2160,475,-218,402
10771,3564,-951,1382,-369,-670,416
10781,3766,-765,1211,-687,-1084,299
10791,4089,-973,1116,-325,-1371,383
10801,3769,-825,950,-100,-1671,491
10811,3693,88,552,-58,-1985,517
10821,3559,1084,238,10,-2322,525
10831,3770,1489,95,262,-2738,550
10841,4287,1238,409,1058,-2901,961
10851,4472,730,262,1756,-3319,1259
10861,5058,105,-269,2194,-2959,1468
10871,5569,-157,-397,2025,-2417,1470
10881,5745,-43,-722,1622,-1494,1553
10891,5239,-238,-1218,1083,-1235,1734
10901,5529,-393,-1576,1163,-816,1726
10911,5992,-355,-974,1755,278,1508
10921,5513,178,-398,2056,1278,1312
10931,5150,1383,491,1951,1884,1451
10941,4651,1975,1301,1905,1958,1752
10951,3970,1735,1918,1569,1668,2021
10961,3427,978,1523,1250,1003,2165
10972,2866,147,416,1465,41,1982
10982,3002,-55,-1186,2181,-653,1506
10992,4068,668,-814,2454,-598,1336
11002,4519,1708,-831,2008,-371,1467
11012,4461,1969,-693,1755,-141,1577
11022,4160,1144,-393,1623,-138,1766
11032,4067,180,-115,1657,71,1805
11042,4219,-372,60,1884,289,1573
11052,4668,-314,-35,2289,672,1321
11062,4760,51,-518,2744,998,1265
11072,4695,42,-311,3164,1396,1361
11082,4203,-147,-61,3353,1731,1268
11092,3559,-33,987,3194,1870,895
11102,3290,236,508,3271,1896,488
11112,3533,337,1378,3240,2043,318
11122,2916,597,1703,2760,1898,456
11132,2222,774,2115,2149,1601,326
11142,2006,681,2345,1302,1134,208
11152,2115,370,2258,313,661,170
11162,2395,-280,2131,-326,167,73
11173,2674,-914,2269,-482,-191,-2
11183,2731,-1141,2202,-20,-265,-17
11193,2668,-973,1771,403,-458,-39
11203,2652,-328,1714,672,-781,-50
11213,2659,584,1247,694,-1179,-81
11223,2889,1025,904,553,-1553,-101
11233,2922,1042,441,322,-1789,12
11243,3315,933,119,8,-1956,-84
11253,3810,757,-491,-229,-1908,-125
11263,4273,461,-940,-338,-1755,-36
11273,4497,-301,-1157,-254,-1525,63
11283,4645,-750,-1342,-68,-1358,58
11293,4597,-477,-885,-122,-853,-184
11303,4649,612,110,-553,-296,-483
11313,4359,1124,628,-1301,48,-340
11323,3993,884,833,-2014,199,-286
11333,3719,-65,364,-2162,179,-368
11343,3847,-1055,975,-2290,228,-591
11353,4289,-1068,336,-2006,326,-986
11363,4553,-1189,513,-1364,590,-1047
11374,4242,-1330,968,-1196,782,-1185
11384,4011,-1444,947,-1243,669,-1442
11394,4043,-1588,650,-1157,444,-1580
11404,4147,-1577,545,-1008,302,-1671
11414,4218,-1323,454,-1052,298,-1849
11424,4159,-834,366,-1313,312,-1942
11434,4067,-443,196,-1624,335,-1915
11444,4041,-283,-2,-1953,282,-1749
11454,3985,-355,-355,-2179,287,-1621
11464,4014,-570,-544,-2302,302,-1652
11474,4226,-940,-565,-2261,288,-1862
11484,4332,-1216,-490,-2128,302,-1735
11494,4266,-1188,-168,-1907,359,-1675
11504,4086,-1256,522,-1818,322,-1380
11514,3518,-1064,635,-2207,177,-1435
11524,3480,-813,203,-2401,-124,-1477
11534,3695,-814,178,-2641,-415,-1353
11544,3984,-898,-342,-2856,-553,-1360
11554,4219,-1088,-866,-2756,-545,-1308
11564,4205,-1260,-1074,-2489,-454,-1243
11575,4060,-1243,-1135,-2193,-360,-1137
11585,3847,-1158,-1207,-1828,-325,-1074
11595,3707,-1018,-1180,-1548,-313,-1046
11605,3804,-851,-1125,-1340,-247,-1085
11615,3989,-571,-869,-1269,-144,-1064
11625,4220,-218,-700,-1403,-82,-982
11635,4439,-99,-840,-1546,-21,-875
11645,4306,-370,-1467,-1559,61,-717
11655,4207,-581,-1263,-1879,31,-152
11665,4600,-909,79,-2810,223,18
11675,5285,-1353,-482,-3435,391,-364
11685,5616,-1627,-927,-3615,869,-603
11695,5063,-1361,-1041,-3615,1260,-550
11705,4353,-1062,-953,-3396,1429,-570
11715,3870,-1214,-1055,-2993,1455,-596
11725,3355,-1421,-856,-2494,1333,-531
11735,3247,-1273,-544,-2178,1145,-546
11745,3355,-894,-210,-1935,980,-487
11755,3484,-534,-51,-1765,861,-572
11765,3546,-264,223,-1815,800,-636
11776,3571,101,473,-2103,665,-701
11786,3685,425,630,-2402,533,-815
11796,3906,384,653,-2669,398,-958
11806,4065,-209,465,-2716,226,-1002
11816,4092,-901,313,-2500,104,-954
11826,4171,-1411,269,-2142,-16,-891
11836,4375,-1586,290,-1788,-88,-810
11846,4583,-1549,307,-1533,-109,-734
11856,4724,-1480,357,-1360,-90,-653
11866,4817,-1501,415,-1272,-57,-562
11876,4789,-1638,417,-1234,-14,-443
11886,4683,-1777,365,-1189,34,-330
11896,4505,-1832,349,-1098,96,-218
11906,4364,-1820,360,-916,159,-90
11916,4173,-1743,464,-717,206,28
11926,3995,-1618,496,-450,193,112
11936,3864,-1493,609,-87,152,182
11946,3803,-1281,862,216,50,192
11956,3785,-950,1037,376,-89,170
11966,3735,-631,1130,473,-249,164
11977,3750,-428,1180,514,-431,149
11987,3861,-422,1084,521,-600,139
11997,3983,-590,1004,522,-732,142
12007,4081,-776,897,554,-813,136
12017,4145,-931,748,657,-862,159
12027,4188,-992,600,780,-891,207
12037,4281,-1074,477,931,-891,252
12047,4352,-1162,325,1102,-881,312
12057,4366,-1225,169,1298,-853,371
12067,4364,-1234,46,1512,-812,428
12077,4278,-1241,-93,1740,-766,457
12087,4362,-1116,-32,1890,-743,494
12097,4333,-1021,-71,2012,-721,576
12107,4329,-964,-113,2145,-714,619
12117,4322,-933,-196,2311,-707,657
12127,4348,-961,-209,2494,-683,694
12137,4386,-974,-327,2687,-677,720
12147,4420,-963,-378,2894,-650,757
12157,4428,-939,-417,3111,-614,811
12167,4427,-933,-461,3309,-588,855
12178,4410,-897,-504,3474,-567,896
12188,4350,-883,-605,3631,-593,934
12198,4424,-824,-657,3728,-507,946
12208,4468,-732,-782,3849,-391,959
12218,4429,-594,-815,3992,-303,930
12228,4513,-420,-833,4027,-232,865
12238,4619,-114,-779,3908,-75,859
12248,4674,223,-744,3541,139,857
12258,4670,450,-525,2999,375,891
12268,4439,583,-417,2385,580,985
12278,4225,425,-553,1897,696,1006
12288,4090,-90,-615,1899,760,1071
12298,3897,-590,-470,2044,801,1110
12308,3793,-815,-563,2227,788,1040
12318,3746,-764,-495,2520,725,951
12328,3914,-686,-289,2723,669,759
12338,3905,-746,-144,2985,636,710
12348,3723,-911,74,3371,535,742
12358,3650,-744,923,3190,333,817
12368,3658,-264,1004,2746,226,708
12379,3354,107,1073,2038,63,691
12389,3015,13,897,1171,-219,702
12399,3144,-404,529,331,-545,599
12409,3567,-824,0,-124,-689,465
12419,3777,-1266,-299,-119,-683,395
12429,3639,-1535,-405,73,-829,367
12439,3556,-1322,-656,157,-971,291
12449,3485,-711,-726,397,-996,272
12459,3665,-353,-635,629,-1065,209
12469,3830,-313,-475,672,-1072,266
12479,4082,-499,-402,655,-877,431
12489,4017,-983,-550,752,-692,760
12499,3875,-1294,-594,898,-555,1012
12509,3561,-1343,-708,1214,-514,921
12519,3718,-1293,-701,1504,-497,783
12529,3888,-1166,-577,1623,-362,800
12539,3834,-1013,-451,1484,-228,881
12549,3787,-932,-71,1049,-102,851
12559,3689,-1040,93,661,101,761
12569,3363,-1315,66,477,179,646
12580,2976,-1493,80,452,135,493
12590,2843,-1358,114,560,-27,323
12600,2792,-994,177,619,-158,249
12610,2793,-641,233,509,-314,254
12620,2817,-435,181,298,-469,239
12630,2912,-370,-9,60,-614,189
12640,3102,-336,-251,-138,-674,110
12650,3301,-374,-283,-302,-651,33
12660,3395,-294,-347,-609,-619,-49
12670,3551,-191,-403,-772,-524,-197
12680,3696,-181,-290,-814,-411,-367
12690,3706,-85,-248,-861,-290,-512
12700,3616,56,-211,-794,-211,-623
12710,3489,123,-100,-753,-178,-699
12720,3406,186,-38,-836,-222,-808
12730,3384,188,-199,-897,-267,-868
12740,3353,44,-307,-914,-285,-882
12750,3324,-150,-385,-873,-324,-943
12760,3313,-200,-416,-828,-333,-981
12770,3213,-10,-481,-701,-299,-958
12781,3228,224,-487,-476,-348,-917
12791,3494,232,-430,-269,-340,-894
12801,3772,122,-299,-260,-297,-917
12811,3921,164,-230,-284,-228,-921
12821,3923,285,-301,-206,-206,-886
12831,3914,359,-190,-182,-208,-838
12841,4017,379,-49,-225,-226,-839
12851,4097,240,-54,-236,-244,-838
12861,4206,-82,-107,-257,-280,-803
12871,4323,-385,-84,-215,-342,-827
12881,4499,-525,55,-177,-376,-891
12891,4640,-526,-93,-69,-471,-950
12901,4897,-735,-176,15,-513,-1001
12911,5116,-854,-302,-63,-495,-1076
12921,5379,-853,-395,-126,-391,-1169
12931,5485,-981,-386,63,-300,-1163
12941,5501,-1202,-167,281,-242,-1102
12951,5473,-1068,-47,346,-220,-1025
12961,5494,-393,-349,449,-356,-735
12971,5506,-227,-1241,1213,-482,-170
12982,5470,-466,-1344,1332,-741,384
12992,6127,1220,-2016,2266,-1509,-561
13002,9784,1779,-2387,3722,-1362,603
13012,4963,955,-385,1355,-2365,3210
13022,6759,-910,3382,1334,-1593,2630
13032,6518,-1948,2574,891,-2176,2834
13042,7549,1688,78,1461,-1964,1478
13052,6813,3941,2877,1421,-2161,2741
13062,7122,2627,1492,1417,-2597,2952
13072,7927,-1794,-2427,1624,-2627,2985
13082,5772,-4746,-4577,1871,-2485,3032
13092,5518,-6320,-1360,2116,-249,3806
13102,5361,-4520,2541,1613,889,3114
13112,5284,-2342,-1658,2060,1075,1795
13122,4479,-1749,-1095,1672,1496,2587
13132,2655,-2318,-1119,1206,1388,2509
13142,1586,-2483,-615,-459,980,2748
13152,1460,-7266,39,-276,174,3181
13162,2786,-9456,-2607,1001,-596,1633
13172,3995,-3571,-2006,1046,-496,879
13183,3173,-3054,-879,1538,-703,1606
13193,3063,-4062,141,1853,-842,1825
13203,4156,-3306,-37,2567,-904,1807
13213,4089,-2982,500,3246,-1289,2304
13223,3722,-3973,108,3753,-1842,2525
13233,3797,-4733,-386,4251,-2165,2539
13243,5044,-4424,-654,4755,-2022,2394
13253,5623,-3092,-527,4763,-1535,2301
13263,5030,-1473,-266,3944,-971,2295
13273,4629,-832,-137,2779,-568,2293
13283,4378,-1047,135,1625,-78,2327
13293,4215,-1637,-35,1012,136,2268
13303,4317,-2416,455,1070,495,2486
13313,3684,-2422,940,1130,618,2424
13323,3016,-2447,1308,1464,503,2341
13333,2666,-2503,1355,1379,219,2217
13343,2929,-2546,971,1128,-10,2004
13353,3376,-2522,648,914,-104,1857
13363,3377,-2371,842,744,-121,1827
13373,3345,-2105,636,686,-110,1752
13383,3378,-2320,840,693,-48,1836
13393,3150,-2819,855,707,16,1881
13403,3062,-3399,937,1013,95,1936
13413,2677,-3501,1474,1127,118,1977
13423,2111,-3519,1519,961,-115,1837
13434,2019,-3666,728,722,-395,1726
13444,2613,-3034,-360,497,-447,1456
13454,3815,-1995,-1359,1147,-36,1333
13464,3705,-1488,-316,1386,618,1660
13474,2139,-1516,486,244,906,1553
13484,1070,-1678,314,-816,1094,1279
13494,2617,-128,-1092,-1009,1675,617
13504,2918,-1373,870,-489,2277,938
13514,1293,-2441,312,-1019,2157,636
13524,1740,-1838,1235,249,2502,165
13534,1242,-1240,2252,646,2114,51
13544,834,-1233,2197,716,1480,-133
13554,699,-2068,2131,427,750,-296
13564,1034,-3303,1906,309,6,-527
13574,1713,-5224,1481,808,-527,-581
13584,1500,-7144,1330,1564,-816,-679
13594,992,-7837,1326,2295,-976,-1095
13604,1056,-6817,952,2100,-775,-1735
13614,1778,-5443,1995,1851,-319,-2116
13624,2257,-4734,3279,1482,109,-1990
13634,2793,-2862,3661,-317,102,-1400
13644,3394,-731,2310,-889,304,-563
13654,3855,-1163,1461,-513,-43,615
13664,4487,-3896,108,-914,85,1918
13674,5650,-8716,-1394,327,555,3103
13685,5119,-13318,2052,110,2713,4155
13695,2052,-11202,2457,957,2878,2288
13705,896,-7235,3751,2863,3183,1555
13715,-702,-4359,2934,2642,2021,2401
13725,-176,-1847,-1439,2022,865,2138
13735,2699,-1883,-1426,2218,1334,2064
13745,3699,-3356,515,1959,2711,2067
13755,1126,-3354,1578,1801,2929,1885
13765,-228,-1828,1933,921,2429,1784
13775,525,-2189,1707,250,1925,2371
13785,777,-5125,973,554,1695,2967
13795,752,-6769,638,1156,1684,2884
13805,817,-5654,957,1503,1666,2785
13815,648,-4340,946,1516,1714,2905
13825,509,-4278,871,1467,1784,3176
13835,324,-4897,853,1396,1785,3488
13845,148,-5226,876,1529,1773,3685
13855,-23,-4762,985,1727,1857,3674
13865,-90,-3709,1044,1860,1892,3514
13875,-144,-2660,689,1947,1975,3319
13885,-270,-1988,496,2150,2137,3259
13895,-386,-1491,392,2056,2267,3214
13905,-513,-949,436,1632,2293,3073
13915,-664,-1057,69,1485,2184,2814
13925,-434,-1651,-90,1563,2188,2625
13936,-292,-1915,-329,1643,2206,2432
13946,-320,-1613,-515,1631,2226,2255
13956,-380,-1134,-602,1548,2116,2022
13966,-343,-762,-600,1411,2053,1728
13976,-270,-397,-700,1325,1954,1513
13986,-83,190,-610,1231,1922,1434
13996,141,992,-674,878,1901,1348
14006,308,1176,-682,516,1787,1383
14016,393,516,-971,468,1705,1379
14026,363,-314,-685,648,1581,1267
14036,269,273,-872,586,1374,1161
14046,140,1501,-2072,852,964,946
14056,452,2061,-2704,884,456,511
14066,795,2896,-3245,782,-194,159
14076,999,3808,-3256,1019,-1069,-412
14086,1474,4090,-2838,1434,-2075,-916
14096,2363,3691,-2547,1879,-3084,-1467
14106,3491,2229,-1857,2585,-3930,-2059
14116,4006,1476,-600,3146,-4637,-2546
14126,3662,1469,1218,3554,-5333,-3034
14136,3191,452,2802,3937,-6080,-3569
14146,2809,-1065,3968,4248,-6709,-4137
14156,2592,-1838,4657,4489,-7194,-4635
14166,2521,-2187,5415,4608,-7508,-4746
14176,2271,-2441,5921,4258,-7438,-4700
14187,2474,-3073,5500,3974,-7012,-4599
14197,3065,2157,-691,1959,-6785,-4852
14207,5001,4546,3276,907,-6141,-3768
14217,6900,-9722,5887,619,-5935,-2825
14227,3596,-6254,5080,1181,-6471,-4034
14237,3330,-759,5203,2343,-6245,-4675
14247,2367,87,5640,1356,-6107,-3895
14257,3248,1860,4946,-612,-6271,-3919
14267,3681,3123,3891,-2328,-6263,-4487
14277,3129,2450,3805,-3528,-6154,-4616
14287,2447,2099,2732,-4663,-6401,-5273
14297,4627,4390,-145,-5008,-6655,-6482
14307,6843,6566,-418,-5470,-6632,-6959
14317,8669,6931,-696,-6347,-6307,-7194
14327,10825,6212,-624,-7296,-5851,-7759
14337,13096,5401,-904,-7788,-5329,-8277
14347,14732,5202,-905,-8351,-4803,-8328
14357,15807,5086,-1630,-9301,-4328,-8040
14367,16353,3904,-2391,-10486,-3728,-7457
14377,15842,2935,-2951,-11710,-2973,-6657
14388,14687,1676,-3660,-12615,-2326,-5928
14398,13804,422,-4120,-13235,-1794,-5302
14408,12849,-504,-4102,-13568,-1413,-4711
14418,11756,-1252,-4065,-13664,-1116,-4069
14428,10874,-1898,-4152,-13506,-858,-3377
14438,10168,-2591,-4383,-13040,-600,-2647
14448,9540,-3372,-4051,-12369,-249,-1955
14458,8691,-3840,-3699,-11638,138,-1367
14468,7718,-4143,-3572,-10200,289,-954
14478,6853,-3949,-3207,-8708,496,-372
14488,6168,-3195,-3167,-7283,573,91
14498,5778,-2401,-2896,-6115,796,531
14508,5229,-1693,-1855,-5507,990,755
14518,4570,-1463,-1615,-5190,1010,885
14528,4069,-1581,-1704,-4623,1026,1014
14538,3940,-1667,-1596,-3982,1097,1138
14548,3859,-1407,-1816,-3420,1223,1129
14558,3849,-977,-2043,-2679,1376,1071
14568,3776,-576,-1639,-2167,1541,1102
14578,3662,-297,-1365,-2027,1559,1104
14589,3686,-356,-1528,-1797,1492,1089
14599,3953,-761,-1728,-1425,1525,1126
14609,4335,-1100,-1763,-1267,1828,1228
14619,4473,-1287,-2005,-1267,2255,1326
14629,4505,-1376,-2221,-1458,2828,1337
14639,4421,-1396,-2053,-1225,3323,1313
14649,3696,-1242,-1006,-760,3509,1284
14659,3366,-578,-1272,318,3678,1174
14669,2875,456,-817,832,3648,1222
14679,2619,1030,595,730,3468,845
14689,2763,703,1020,600,3296,424
14699,1838,-1199,2420,-200,2481,338
14709,1691,-2247,881,-1679,1726,-176
14719,2865,-1735,-57,-2312,1396,-611
14729,2790,-1435,436,-2859,558,-861
14739,2801,-2439,235,-3183,112,-975
14749,3171,-2113,264,-3841,-160,-1160
14759,3312,-1181,-399,-2580,-493,-1249
14769,3579,-586,1879,-1875,-1092,-570
14779,3098,-489,1331,-2436,-1664,-422
14790,2777,-215,1211,-1988,-1912,-442
14800,2965,-194,729,-1907,-2376,10
14810,2492,-609,716,-2378,-2963,73
14820,3894,-1079,-1481,-1002,-3523,177
14830,4387,-1759,-224,-661,-3244,767
14840,3839,-1533,-535,-1635,-3273,697
14850,5073,-1843,-1175,-327,-2616,1161
14860,3988,-2951,608,-567,-2402,1894
14870,3024,-3691,-763,-675,-2349,1340
14880,4363,-3538,-316,-140,-2310,562
14890,4744,-3376,-925,305,-1808,215
14900,3885,-3824,-1274,1342,-1559,134
14910,3922,-4000,-1105,1491,-1267,-225
14920,4772,-3314,-973,2898,-1143,11
14930,4513,-3173,9,3497,-929,-87
14940,4633,-2484,-928,3080,-747,-697
14950,4487,-2236,-2465,3754,-712,-721
14960,5286,-3172,-410,4144,495,-113
14970,4720,-3044,1375,3240,1041,-576
14980,4078,-2453,2947,2393,770,-899
14991,2238,-1993,3961,1573,48,-591
15001,1791,-1109,3535,742,-532,-584
15011,2535,-1098,3098,223,-854,-486
15021,3115,-2072,2283,-82,-1250,-364
15031,3403,-3309,1594,164,-1395,-94
15041,3252,-4033,1271,578,-1438,187
15051,2953,-4002,1206,877,-1464,279
15061,2701,-3575,1316,914,-1593,264
15071,2465,-3320,1408,790,-1868,198
15081,2463,-3068,1376,470,-2193,186
15091,2642,-2575,1262,192,-2407,268
15101,2691,-2247,1438,-148,-2582,437
15111,2670,-2058,1803,-652,-2881,503
15121,2863,-1943,1786,-1022,-3112,429
15131,3094,-1794,1521,-1280,-3208,377
15141,3409,-1853,1251,-1276,-3247,381
15151,3679,-2109,1251,-1173,-3195,453
15161,3806,-2137,1262,-1045,-3168,520
15171,3954,-1643,1099,-1066,-3126,508
15181,4294,-916,562,-1019,-3093,530
15192,4788,-1086,188,-560,-2945,796
15202,4880,-2026,-249,9,-2850,1080
15212,4977,-2631,-1282,915,-2559,1153
15222,5729,-2801,-898,1736,-1819,1454
15232,5872,-2086,-264,1464,-1023,1286
15242,5416,-1178,-1004,1463,-459,499
15252,5200,-1140,-1666,2364,304,343
15262,4912,-1443,-1030,3386,868,898
15272,4041,-1780,-1565,4387,1165,822
15282,4172,-1996,-1909,5763,1744,607
15292,4211,-1749,-1190,7222,2676,563
15302,3777,-1150,151,7638,3432,529
15312,2579,-170,1577,7515,3226,565
15322,1309,197,2025,7361,1997,833
15332,1196,-173,3004,5603,1111,1338
15342,1701,-262,3549,3126,736,1299
15352,1927,-542,3825,1423,432,795
15362,1465,-822,3693,-172,-179,405
15372,1634,-1581,3412,-915,-872,530
15382,2021,-2431,2065,-879,-1503,632
15393,3126,-2663,1822,-544,-1917,542
15403,3734,-2072,1954,-1130,-1996,747
15413,3126,-1597,1322,-1290,-2399,1035
15423,3108,-2423,294,-696,-2575,1301
15433,3100,-3185,1203,-543,-2364,1457
15443,3118,-3439,447,8,-2493,1071
15453,3574,-3669,832,665,-2328,1411
15463,3812,-3451,1443,613,-2680,1873
15473,3736,-2685,576,142,-2615,2084
15483,3949,-2818,-174,354,-2428,2247
15493,4440,-3560,192,424,-2015,2620
15503,4520,-4678,-160,551,-1486,2857
15513,4846,-5791,52,1301,-516,2512
15523,4944,-6384,-124,2409,406,1803
15533,5106,-6284,838,3377,1020,1385
15543,5056,-4469,3912,3423,1547,1310
15553,3241,-1994,3310,3689,1112,835
15563,2665,-2091,4363,3783,482,1211
15573,2820,-4441,2737,3719,-601,1470
15583,4769,-5726,291,4773,-572,803
15594,6074,-5711,-336,6349,318,341
15604,5385,-4125,208,6802,1199,128
15614,3981,-1827,1373,6236,1472,-128
15624,3148,-694,1417,5181,1509,-547
15634,3279,-1218,858,4610,1438,-836
15644,3928,-1601,595,4683,1484,-795
15654,4199,-1424,328,5355,1323,-657
15664,4218,-624,2353,4859,1072,-16
15674,3255,-712,1700,4206,228,-218
15684,3350,-2129,1645,4710,-173,-404
15694,3374,-3755,1760,5210,-692,-361
15704,3653,-4363,645,5668,-984,-986
15714,3560,-3702,703,5955,-804,-1308
15724,3292,-2388,1500,5702,-829,-1921
15734,2224,-688,2735,4916,-778,-1683
15744,1311,139,2957,4514,-1024,-1282
15754,1395,418,2379,3816,-1177,-1000
15764,2237,744,1819,3056,-1262,-892
15774,2558,503,1289,2586,-1146,-806
15784,2508,-384,1180,2220,-905,-892
15795,2405,-948,1440,2057,-817,-900
15805,2225,-713,1240,1729,-876,-794
15815,2295,-35,1122,1288,-951,-669
15825,2455,223,1211,710,-973,-670
15835,2454,-133,1366,-33,-980,-773
15845,2319,-358,1431,-852,-928,-841
15855,2154,-306,1233,-1490,-867,-925
15865,2139,-363,763,-1767,-860,-1040
15875,2299,-613,483,-1730,-821,-1144
15885,2335,-734,318,-1828,-727,-1138
15895,2262,-753,561,-2205,-600,-1191
15905,2015,-699,660,-2651,-513,-1337
15915,1944,-709,1002,-2858,-423,-1548
15925,1775,-553,943,-3280,-534,-1771
15935,1860,78,444,-3686,-729,-1989
15945,1945,706,-36,-3826,-676,-2024
15955,2096,1015,122,-4010,-480,-2010
15965,2272,1055,351,-4352,-295,-1992
15975,2393,431,458,-4742,-130,-1884
15985,2421,-67,713,-5468,10,-1999
15996,2543,-160,528,-5569,257,-2300
16006,2613,-503,409,-5153,458,-2377
16016,3013,-1052,261,-5219,686,-2259
16026,3722,-1142,846,-5559,1168,-2203
16036,3871,-1232,1237,-5736,1549,-2230
16046,3543,-1531,1181,-5868,1796,-2211
16056,3554,-1930,1115,-5942,1855,-2132
16066,3804,-2227,728,-6006,1932,-2093
16076,4034,-2519,319,-6020,2009,-2081
16086,4168,-3051,-269,-6014,1948,-2060
16096,4453,-3961,-1168,-5723,1825,-1936
16106,4581,-5445,-1365,-4941,1791,-1671
16116,4042,-6522,-282,-4000,1803,-1520
16126,2878,-6100,1057,-3708,1649,-1621
16136,2057,-4339,1322,-4499,1309,-1840
16146,2467,-3927,718,-4918,1104,-1650
16156,2693,-6836,652,-4538,772,-768
16166,2373,-8430,401,-4259,585,-537
16176,2435,-7727,839,-4140,576,-829
16186,2220,-7242,1347,-3999,514,-593
16197,2232,-7358,1463,-3759,430,-227
16207,2225,-6821,1612,-3665,356,-126
16217,2503,-6617,1435,-3440,271,81
16227,2644,-6433,1335,-3251,135,386
16237,2636,-6368,991,-2797,-65,689
16247,2517,-5693,453,-2314,-285,908
16257,2298,-4781,95,-1903,-580,1099
16267,2178,-4490,-293,-1427,-945,1301
16277,2303,-4452,-650,-854,-1330,1464
16287,2746,-4422,-802,-237,-1735,1588
16297,3563,-4692,-1007,379,-1983,1708
16307,3804,-4973,-540,1059,-2277,1756
16317,3923,-4677,26,1888,-2479,1963
16327,3869,-3670,561,2377,-2711,2202
16337,3560,-3180,1036,2866,-3133,2428
16347,3321,-2827,987,3429,-3515,2659
16357,3319,-2550,1238,4074,-3986,2917
16367,3706,-2612,1237,4586,-4385,3186
16377,3799,-2929,1537,5231,-4825,3469
16387,3697,-2511,1840,5757,-5271,3668
16398,3559,-1817,2587,6059,-5721,3805
16408,3112,-1551,3577,6305,-6242,3952
16418,3061,-1416,4124,6516,-6547,4043
16428,3216,-1743,4449,6993,-6553,3962
16438,2931,-1781,4715,7605,-6416,3634
16448,3118,-1455,4182,8492,-5772,3443
16458,3007,-851,3781,8881,-5184,3062
16468,3621,767,2103,8687,-3996,2649
16478,2149,2387,-3146,8999,-3147,2482
16488,-2473,32767,3113,-8228,12065,-3193
16498,9258,12478,-6125,-18769,-7594,689
16508,10391,-12254,1974,-3000,2025,4133
16518,-3115,-14913,12546,-2900,2305,-496
16528,873,2744,7602,-174,6068,-3671
16538,459,9432,9651,1223,6374,-1574
16548,1352,8963,6528,-4117,3828,-2278
16558,6415,2766,1536,-6314,2344,-2860
16568,7679,-3469,-412,-6114,2557,-1364
16578,5310,-6432,-857,-4107,3520,-1273
16588,4372,-4224,113,-2168,4295,-2158
16599,4543,-147,120,-1676,4211,-2360
16609,4728,1556,343,-1827,3692,-2070
16619,5174,1075,150,-2790,2916,-1843
16629,5732,-90,-854,-3487,2437,-1780
16639,5648,-1142,-988,-3489,2237,-1661
16649,5046,-1167,-712,-3484,2126,-1775
16659,4821,-436,-424,-3336,2043,-1884
16669,4589,98,54,-3372,1877,-1861
16679,4371,95,583,-3338,1667,-1900
16689,4140,-157,1314,-3347,1358,-2120
16699,4282,-241,1677,-3324,1164,-2384
16709,4764,-544,1862,-3177,1179,-2681
16719,5096,-953,1535,-2991,1264,-3054
16729,5265,-1361,1893,-2978,1406,-3444
16739,4833,-1251,2050,-3248,1561,-3739
16749,5190,-587,1445,-3496,1660,-4346
16759,6433,216,1144,-3664,1769,-4679
16769,6909,1297,822,-5005,2204,-4327
16779,8072,1704,-1212,-4940,2647,-4363
16789,9766,101,-1624,-3712,2893,-3494
16800,9874,-2249,-1824,-3390,2830,-2267
16810,9050,-2933,-2105,-4085,3212,-2658
16820,8754,-2284,-1765,-4429,3708,-3101
16830,8399,-2047,-1396,-4048,3987,-2764
16840,7556,-2612,-844,-3355,3841,-2423
16850,6226,-2761,-422,-3495,3163,-2676
16860,6087,-501,-1420,-4452,2495,-3694
16870,8114,1708,-1805,-4394,3062,-4331
16880,8267,1132,-710,-4289,2388,-3408
16890,8273,452,-1732,-5039,2055,-3110
16900,9223,-913,-2179,-5018,2303,-2989
16910,9136,-2475,-3132,-4967,2644,-2568
16920,8737,-3478,-3783,-4705,3209,-2390
16930,7558,-3709,-3440,-4756,3788,-2198
16940,6385,-3770,-3269,-4529,3960,-1890
16950,5377,-3770,-2426,-4309,3881,-1458
16960,4307,-3554,-1203,-4365,3488,-1153
16970,3491,-3189,-589,-4656,2856,-947
16980,3399,-2629,-297,-5203,2497,-619
16990,3392,-2365,-580,-5785,2224,-201
17001,3376,-2612,-819,-6379,2036,228
17011,3223,-3250,-1212,-6612,1816,602
17021,3254,-3591,-1812,-6431,1762,889
17031,3403,-3681,-2064,-5936,1798,1171
17041,3391,-3748,-2212,-5347,1879,1362
17051,3079,-3622,-2094,-4684,1912,1463
17061,2721,-3335,-1947,-4035,1833,1574
17071,2733,-2965,-1948,-3558,1680,1662
17081,2815,-2462,-1861,-3242,1482,1719
17091,2711,-2071,-1714,-3079,1169,1800
17101,2706,-1978,-1877,-3012,780,1874
17111,2811,-2201,-1856,-2981,419,1968
17121,2931,-2506,-2046,-2926,85,1987
17131,3174,-2682,-2328,-2797,-158,2015
17141,3414,-2839,-2489,-2554,-315,2055
17151,3438,-2937,-2488,-2310,-402,2068
17161,3275,-2931,-2567,-1985,-468,2028
17171,3169,-2984,-2617,-1619,-508,1975
17181,3050,-2979,-2632,-1218,-517,1897
17191,2925,-2897,-2519,-877,-505,1812
17202,2788,-2717,-2363,-653,-543,1712
17212,2668,-2615,-2203,-481,-629,1616
17222,2553,-2639,-2078,-388,-729,1546
17232,2473,-2849,-2007,-350,-858,1501
17242,2401,-3175,-2053,-310,-954,1475
17252,2335,-3537,-2081,-240,-1005,1447
17262,2235,-3696,-2022,-148,-1008,1397
17272,2182,-3626,-1991,-36,-1019,1361
17282,2161,-3450,-1931,37,-1029,1359
17292,2105,-3296,-1948,14,-1065,1344
17302,2044,-3153,-2028,7,-1116,1350
17312,1989,-3220,-2058,-3,-1143,1402
17322,1972,-3349,-2161,-66,-1140,1422
17332,2092,-3252,-2161,-344,-1054,1406
17342,2318,-3531,-1232,193,-872,1686
17352,1756,-3681,-1936,-188,-984,1227
17362,1577,-3514,-1439,19,-1139,1276
17372,1710,-3482,-996,-33,-1355,1305
17382,1921,-3835,-919,13,-1562,1079
17392,2080,-4266,-638,-74,-1753,1022
17402,1990,-4618,-436,-175,-1792,1014
17412,1921,-4727,-196,-313,-1841,882
17422,2085,-4604,294,-399,-1785,912
17432,1898,-4284,676,-507,-1752,948
17442,1669,-3246,-189,-982,-1779,937
17453,1708,-2589,-550,-1054,-1702,1168
17463,1385,-2508,-915,-1129,-1643,1263
17473,1180,-2261,-1716,-959,-1557,1090
17483,1180,-1974,-1460,-595,-1311,997
17493,1128,-1535,-1447,-419,-1054,742
17503,1284,-1365,-1259,-114,-850,543
17513,1616,-1668,-938,146,-593,522
17523,1659,-2568,-88,397,-392,453
17533,1306,-3183,371,504,-393,310
17543,989,-3472,746,550,-527,379
17553,1094,-3662,852,377,-577,442
17563,1235,-3783,971,161,-561,377
17573,969,-3919,1087,-46,-607,336
17583,557,-3983,915,-237,-806,249
17593,480,-3841,488,-409,-929,115
17603,669,-3379,-174,-534,-941,-18
17613,682,-3117,-348,-518,-913,-108
17623,390,-2824,-496,-576,-909,-254
17633,96,-2508,-615,-531,-899,-371
17643,-104,-2393,-467,-543,-915,-439
17653,-211,-2443,-373,-599,-950,-519
17663,-217,-2723,-334,-644,-1027,-573
17673,-54,-3267,-521,-633,-1094,-609
17683,347,-4087,-611,-464,-1076,-595
17693,782,-4844,-664,-212,-861,-558
17704,1109,-5288,-511,13,-516,-547
17714,1144,-5308,-494,201,-183,-535
17724,927,-5180,-245,363,14,-430
17734,630,-5019,-117,376,63,-331
17744,438,-4818,-37,319,27,-240
17754,249,-4788,28,212,-66,-118
17764,121,-4814,-49,73,-189,-40
17774,104,-4983,-235,112,-250,82
17784,65,-5510,-45,120,-320,179
17794,-105,-5095,-474,-4,-355,122
17804,110,-4846,-1,274,-282,217
17814,-27,-4960,212,32,-388,338
17824,88,-5027,25,-76,-479,304
17834,234,-5128,166,21,-461,401
17844,210,-5017,233,36,-428,439
17854,151,-4882,266,89,-381,479
17864,73,-4816,339,93,-365,505
17874,47,-4734,307,111,-341,531
17884,19,-4637,292,134,-342,529
17894,30,-4533,147,208,-322,551
17904,50,-4477,91,338,-323,576
17914,14,-4274,20,343,-305,519
17924,66,-4062,98,421,-282,494
17934,31,-3940,132,441,-293,498
17944,-22,-3997,170,454,-321,472
17955,-12,-4087,255,471,-330,480
17965,-44,-4126,305,455,-324,490
17975,-46,-4062,229,456,-298,495
17985,-41,-3955,138,554,-244,536
17995,-28,-3884,247,602,-224,532
18005,-14,-3717,254,547,-208,511
18015,-43,-3524,131,548,-187,511
18025,-122,-3464,214,624,-163,522
18035,-252,-3450,260,662,-174,480
18045,-258,-3346,263,678,-205,422
18055,-246,-3283,411,689,-227,388
18065,-220,-3220,299,666,-228,361
18075,-204,-3226,51,694,-198,361
18085,-235,-3306,-15,796,-166,379
18095,-324,-3376,116,763,-135,329
18105,-339,-3345,28,786,-90,237
18115,-407,-3333,21,913,-56,219
18125,-502,-3279,43,1029,-55,203
18135,-582,-3210,148,1086,-97,167
18145,-622,-3146,168,1086,-238,123
18155,-572,-3116,154,1148,-387,93
18165,-525,-3125,139,1182,-482,89
18175,-404,-3123,119,1131,-593,3
18185,-261,-3097,185,1110,-652,-63
18195,-142,-2990,162,1077,-675,-127
18206,-75,-2892,-27,1097,-700,-162
18216,-26,-2899,-106,1132,-735,-204
18226,55,-2885,-172,1082,-741,-272
18236,140,-2720,-240,1121,-744,-311
18246,115,-2545,-255,1217,-729,-335
18256,117,-2327,-284,1202,-808,-412
18266,138,-2053,-479,1135,-873,-513
18276,224,-1838,-588,1125,-962,-610
18286,343,-1729,-653,1039,-1073,-736
18296,527,-1750,-834,927,-1208,-888
18306,768,-1868,-907,803,-1376,-1021
18316,1029,-2117,-997,680,-1491,-1142
18326,1318,-2389,-982,655,-1594,-1237
18336,1586,-2639,-883,596,-1654,-1298
18346,1768,-2790,-772,511,-1675,-1381
18356,1857,-2920,-753,495,-1659,-1444
18366,1802,-3119,-589,529,-1629,-1463
18376,1645,-3276,-622,502,-1642,-1504
18386,1601,-3293,-750,518,-1644,-1572
18396,1607,-3306,-668,569,-1639,-1626
18406,1554,-3298,-713,574,-1649,-1694
18416,1591,-3399,-657,584,-1646,-1755
18426,1676,-3498,-628,493,-1703,-1821
18436,1876,-3570,-458,470,-1759,-1889
18446,2015,-3741,-35,468,-1837,-1892
18457,2081,-3820,103,326,-1909,-1868
18467,2218,-3805,153,232,-1903,-1798
18477,2339,-3798,371,5,-1847,-1777
18487,2306,-3971,192,-178,-1831,-1742
18497,2166,-4164,49,-325,-1791,-1714
18507,2222,-4430,97,-293,-1735,-1708
18517,2256,-4638,350,-266,-1654,-1690
18527,2345,-4600,317,-164,-1564,-1707
18537,2488,-4464,799,-91,-1417,-1658
18547,2386,-4183,1022,-247,-1331,-1615
18557,2332,-3951,1039,-451,-1222,-1571
18567,2365,-4046,1027,-717,-1144,-1466
18577,2409,-4301,717,-911,-1084,-1418
18587,2453,-4563,587,-828,-1068,-1372
18597,2438,-4515,527,-732,-1104,-1283
18607,2484,-4000,606,-638,-1151,-1159
18617,2447,-3410,1010,-665,-1154,-964
18627,2288,-3172,1537,-551,-1184,-780
18637,2067,-2981,2102,-634,-1297,-659
18647,2154,-2926,2583,-712,-1518,-754
18657,2460,-2961,2229,-789,-1652,-856
18667,2859,-3489,1632,-571,-1595,-1000
18677,3458,-4594,1422,-201,-1334,-1182
18687,3345,-5454,2342,-96,-1022,-1546
18697,3122,-5233,3973,-56,-390,-1791
18708,2429,-4326,4279,115,176,-1823
18718,1707,-3574,3741,-28,235,-1881
18728,1016,-3071,2349,-490,-308,-1851
18738,1203,-1426,-203,-1977,-899,-1889
18748,2960,-640,-877,-804,209,-985
18758,4512,-2255,2375,857,603,-25
18768,4232,-3854,2237,-1027,1086,150
18778,4357,-4710,1736,-1205,1486,-67
18788,3627,-5335,1575,150,1769,116
18798,2542,-4531,1790,603,1521,-205
18808,2551,-2069,1261,301,884,-1016
18818,3589,286,729,87,709,-1592
18828,5103,1404,1033,16,1046,-1604
18838,6410,598,2267,-332,1642,-1302
18848,6598,-1218,3307,-936,2028,-1120
18858,6535,-2734,3364,-1128,2218,-1098
18868,6525,-3469,3083,-982,2489,-1039
18878,6380,-2963,2778,-936,2809,-1053
18888,6255,-1967,2648,-993,3054,-967
18898,6094,-1310,2499,-1317,3063,-676
18908,6140,-1596,2110,-1450,3038,-345
18918,6309,-2723,2587,-1346,3122,101
18928,6117,-3915,3652,-1271,3091,320
18938,5964,-4676,4565,-715,2701,323
18948,6185,-5393,5579,266,2431,736
18959,6249,-4867,6236,257,2544,980
18969,6342,-4245,6782,281,2800,1007
18979,5867,-3952,6991,174,2999,1214
18989,6032,-3857,6747,0,3180,1483
18999,5934,-4213,6575,183,3302,1763
19009,5781,-4602,5709,550,3128,2068
19019,5844,-4776,5495,1208,2978,2291
19029,5992,-4624,5520,1468,2797,2319
19039,6379,-4639,5303,1677,2680,2468
19049,6513,-4867,4701,1798,2584,2730
19059,6479,-5238,4079,1916,2508,2808
19069,6419,-5567,3464,2162,2472,2871
19079,6324,-5800,2790,2345,2539,2929
19089,6061,-6010,2296,2524,2673,2913
19099,5868,-5808,1968,2556,2774,2881
19109,5657,-5384,1277,2655,2856,2944
19119,5487,-5396,847,2664,2867,3136
19129,5303,-5318,140,2504,2862,3274
19139,5238,-5155,-610,2252,2952,3191
19149,5660,-4730,-1495,1989,3160,3144
19159,6055,-3884,-2263,1692,3494,3256
19169,5627,-2867,-2626,1447,3810,3350
19179,4393,-2089,-3408,1123,3887,3357
19189,3519,-1329,-4401,1203,4047,3434
19199,2952,-897,-5012,1193,4421,3509
19210,2279,-646,-6176,1365,4876,3587
19220,1617,-394,-7026,1492,5476,3672
19230,1079,513,-7188,1013,6205,3565
19240,551,2082,-7071,362,7110,3459
19250,-73,3924,-6373,-972,7760,3572
19260,-831,5477,-6028,-2491,8191,3563
19270,-1539,5839,-6704,-3989,8027,3533
19280,-848,5067,-8426,-4380,8247,3281
19290,1307,4008,-9562,-3969,9396,3042
19300,2991,5197,-9380,-4163,10981,2577
19310,4880,9087,-9786,-4817,12383,1760
19320,9166,12871,-10999,-5002,13610,605
19330,14407,14519,-12993,-5302,14375,-1169
19340,19946,18421,-16847,-5794,15190,-3381
19350,24861,25361,-22182,-4180,15109,-6234
19360,28586,27422,-25909,-2651,12786,-10000
19370,-32768,25330,-26320,-720,9282,-14421
19380,-32768,24203,-20561,1028,4268,-19016
19390,-32768,14741,-12772,3437,-153,-22111
19400,-32768,6612,3342,7475,-4584,-24958
19411,-32768,-1582,19313,14108,-9230,-24954
19421,-32768,-10731,30754,23406,-14454,-20495
19431,-32768,-26980,28752,30073,-19796,-16026
19441,-32768,-32768,12547,-32768,-24201,-11220
19451,-32768,-23431,-6125,-32768,-25721,-3318
19461,-32768,-1966,-16254,-32768,-21334,6513
19471,-32768,21053,-32768,-32768,-15377,13515
19481,-32768,32767,24041,20636,7903,-5979
19491,-7199,6364,15528,26356,-9896,32388
19501,-3217,-4650,-6113,524,-9555,5451
19511,10993,-17109,-19872,-1210,-10000,5636
19521,31555,-22365,-17359,5112,-10764,14860
19531,-32768,-26115,-22429,1631,-9926,14963
19541,28759,-16001,-16512,4020,-6159,10418
19551,27107,-2853,-14896,4483,-4249,10799
19561,-32768,4775,-12327,2086,-1603,11146
19571,26509,7533,-6631,-445,-1048,11771
19581,16254,7214,-2880,-3257,-1345,11585
19591,12888,3180,-2066,-5575,-2903,11125
19601,13664,-3530,-2849,-6204,-3697,10365
19612,15826,-9165,-1223,-5179,-3417,8976
19622,16017,-9119,1367,-3407,-3081,7258
19632,15422,-4989,3460,-1683,-3050,5929
19642,16108,-804,5304,-641,-2732,5487
19652,16388,2874,6536,-1,-2199,5335
19662,16319,4630,8785,1312,-1187,5421
19672,13510,5925,11426,2186,-619,5541
19682,11095,12868,10082,2449,-752,3292
19692,10533,23854,7696,2669,400,2063
19702,4192,24073,10374,4380,-1096,4653
19712,-3775,17339,9079,3610,-2254,2681
19722,-5435,13201,6476,2154,-2001,-908
19732,-2255,9376,2516,2336,-1837,-2782
19742,2111,6069,1706,4294,-495,-3793
19752,4353,4927,3759,5621,246,-3504
19762,2380,5398,3630,5205,-849,-3453
19772,1968,4898,3086,4613,-1698,-4176
19782,2679,3778,3170,3822,-2455,-4215
19792,840,2824,2624,2318,-2712,-4695
19802,450,2031,1104,1001,-3014,-5989
19813,2484,1418,70,736,-3189,-7021
19823,5725,672,-233,1010,-3004,-7333
19833,8141,-366,-755,1240,-2960,-6816
19843,9049,-1439,-764,1502,-2844,-6375
19853,8677,-2434,917,1145,-2836,-6675
19863,7753,-2610,2041,-31,-3231,-7310
19873,8126,-2122,1932,-1159,-3582,-8015
19883,10073,-1645,1533,-1949,-3645,-8288
19893,11658,-1658,1535,-2778,-3593,-8183
19903,12417,-2136,1321,-3734,-3447,-8155
19913,13101,-2791,511,-4306,-3227,-8235
19923,14212,-3215,33,-4439,-2659,-8370
19933,15287,-3281,115,-4307,-2050,-8446
19943,16230,-3284,752,-4060,-1388,-8457
19953,16558,-3177,1655,-3974,-1034,-8458
19963,16718,-3127,2375,-4095,-988,-8421
19973,16904,-3431,2398,-4258,-959,-8247
19983,16866,-4093,1731,-4468,-834,-7968
19993,16257,-5033,702,-4497,-403,-7638
20003,15410,-6067,-48,-4330,268,-7310
20014,14692,-6940,-1132,-3885,919,-7038
20024,13659,-7435,-2018,-3149,1598,-6672
20034,11983,-6857,-1914,-2525,2261,-6485
20044,10202,-5304,-949,-1918,2434,-6316
20054,8544,-3214,-17,-1815,2025,-5951
20064,7470,-988,474,-2099,1442,-5549
20074,7099,812,451,-2814,816,-5036
20084,7019,1666,157,-3708,309,-4345
20094,7023,1024,-355,-4517,-185,-3586
20104,6760,32,-1045,-5079,-424,-3013
20114,6627,-780,-1431,-5132,-399,-2589
20124,6309,-1446,-1744,-4952,-280,-2188
20134,5899,-2050,-2009,-4598,-176,-1904
20144,5339,-2517,-2050,-4130,-81,-1643
20154,4606,-2733,-1613,-3724,-80,-1443
20164,4055,-2743,-1246,-3428,-145,-1296
20174,3796,-2675,-969,-3194,-261,-1165
20184,3627,-2448,-570,-3145,-422,-1045
20194,3499,-2234,-485,-3150,-641,-925
20204,3293,-2158,-660,-3160,-802,-793
20215,3159,-2010,-815,-3207,-868,-704
20225,2929,-1838,-844,-3294,-879,-683
20235,2576,-1895,-804,-3194,-840,-618
20245,2069,-2093,-728,-3099,-742,-489
20255,1324,-2222,-624,-2936,-621,-474
20265,754,-2422,-480,-2778,-527,-639
20275,402,-2763,-380,-2435,-379,-764
20285,69,-3041,-159,-2048,-200,-849
20295,-70,-3144,-8,-1797,-73,-954
20305,13,-3132,172,-1589,-36,-1080
20315,266,-3114,371,-1421,-20,-1196
20325,488,-3090,401,-1215,35,-1239
20335,555,-3045,433,-1038,122,-1163
20345,458,-3135,598,-915,161,-1077
20355,481,-3412,535,-772,152,-1021
20365,731,-3717,417,-627,157,-940
20375,1173,-3906,186,-507,166,-815
20385,2061,-3956,-86,-453,184,-721
20395,3631,-4206,208,-281,326,-613
20405,5254,-4644,462,-241,606,-502
20416,5843,-4732,52,-319,558,-445
20426,5468,-4034,-310,-510,276,-336
20436,5202,-3104,160,-779,54,74
20446,5187,-2621,742,-1275,-197,533
20456,5427,-2441,1032,-1914,-594,776
20466,5592,-1887,757,-2545,-1069,880
20476,5528,-916,772,-2955,-1494,971
20486,5379,-95,1031,-3325,-1952,1182
20496,5319,116,918,-3612,-2420,1432
20506,5771,-184,809,-3674,-2795,1606
20516,6421,-419,601,-3684,-3079,1729
20526,7053,-306,492,-3583,-3238,1788
20536,7569,-125,595,-3529,-3367,1888
20546,7835,86,584,-3586,-3478,1949
20556,7937,-62,842,-3594,-3565,2072
20566,7553,-626,1062,-3599,-3668,2203
20576,7185,-1212,1301,-3465,-3704,2168
20586,6982,-1681,1585,-3192,-3762,2116
20596,6789,-1927,1856,-2814,-3792,2072
20606,6708,-1969,2182,-2445,-3844,2032
20617,6639,-2011,2411,-2032,-3885,2008
20627,6497,-1929,2616,-1632,-3858,1966
20637,6255,-1632,2884,-1325,-3767,1865
20647,6069,-1434,2790,-925,-3650,1794
20657,5778,-1500,2818,-450,-3415,1765
20667,5383,-1670,2890,71,-3184,1591
20677,5005,-1758,3158,790,-2904,1427
20687,4664,-1552,3260,1562,-2586,1285
20697,4720,-968,3060,2330,-2253,1133
20707,5004,-271,2910,3047,-1893,1089
20717,5667,242,2799,3655,-1624,963
20727,6183,548,2391,4190,-1389,850
20737,6078,601,1795,4681,-1253,685
20747,5790,940,1239,4988,-1108,470
20757,5254,1572,870,5042,-997,301
20767,4569,1983,539,4731,-1032,200
20777,4048,1732,279,4517,-1043,191
20787,3455,912,401,4554,-1147,333
20797,2830,304,125,4628,-1313,387
20807,2384,205,38,4571,-1475,325
20818,2066,512,-362,4337,-1579,241
20828,1691,750,-776,4225,-1580,201
20838,1349,453,-553,4078,-1414,205
20848,929,-155,151,3693,-1203,159
20858,524,-900,733,3351,-1052,-2
20868,150,-1707,1228,3189,-928,-152
20878,-117,-2397,1411,3223,-839,-230
20888,-451,-2820,1271,3559,-440,-99
20898,-1086,-3075,852,4098,-125,126
20908,-1839,-3259,620,4669,190,414
20918,-2810,-3430,494,4920,384,692
20928,-3787,-3571,824,4662,-137,829
20938,-4153,-3604,1338,4285,-1197,836
20948,-3282,-3643,1486,3953,-2237,910
20958,-1740,-3929,796,3626,-2665,1027
20968,-576,-4643,288,3460,-2692,1082
20978,200,-5560,668,3063,-2325,1021
20988,738,-6078,1015,2708,-1825,1045
20998,1317,-6105,525,2521,-1152,1202
21008,1279,-5809,-917,2737,-675,1412
21019,898,-5906,-1282,3000,-412,1758
21029,714,-6293,-903,2979,-459,2120
21039,1337,-6412,-298,2707,-563,2091
21049,2489,-6294,-334,2532,-526,1875
21059,3687,-6739,-1258,2472,-455,1876
21069,4960,-8298,-2627,2611,-253,2144
21079,5847,-10574,-2799,2865,-20,2468
21089,5542,-11218,-2856,2825,-208,2288
21099,5372,-9635,-2021,2722,-277,2207
21109,5162,-8240,-1896,2599,-332,2593
21119,5531,-8686,-1516,2485,-423,2805
21129,6220,-8646,-2029,2363,-374,2733
21139,6756,-7831,-2142,2137,-229,2789
21149,7070,-6970,-2236,1764,-88,2900
21159,7711,-5676,-1752,1512,25,2782
21169,7824,-3408,-2804,1406,-41,2361
21179,7216,-1620,-3312,1091,-128,1957
21189,6392,-1097,-2104,856,-214,1615
21199,4980,-1224,-1678,594,-766,1348
21209,3689,-1226,-1348,625,-1291,1089
21220,2507,-662,-964,777,-1740,947
21230,1260,-97,-182,583,-2061,939
21240,1102,225,125,277,-2522,272
21250,2355,272,455,370,-2864,-547
21260,2340,474,83,796,-2936,-261
21270,2346,676,152,1064,-2918,-469
21280,2787,804,-484,1017,-2825,-625
21290,3286,455,-815,1123,-2665,-563
21300,3531,61,-309,1083,-2270,-550
21310,3539,73,508,842,-1736,-737
21320,2891,132,1220,453,-1482,-913
21330,2839,-128,504,568,-1463,-1011
21340,4090,-764,118,1366,-1256,-710
21350,4946,-1603,1351,1463,-953,-411
21360,5865,-2387,2085,1217,-739,-564
21370,6492,-2784,2915,1080,-593,-474
21380,6887,-2917,3635,1031,-570,-399
21390,6984,-2644,3705,880,-525,-330
21400,7342,-2951,3501,774,-459,-160
21410,7393,-4255,3497,539,-387,22
21421,7026,-5321,3469,452,-189,-32
21431,6122,-5752,3937,724,69,7
21441,4377,-6247,4375,1295,78,52
21451,2403,-5139,4250,1211,-584,-148
21461,2231,-2247,3613,904,-1237,-519
21471,2832,-972,2809,1093,-1658,-363
21481,2637,-2419,2784,1181,-2124,7
21491,2815,-3466,2282,1076,-2400,-138
21501,3492,-3158,1195,1336,-2295,-217
21511,3293,-3054,1390,1976,-2053,-45
21521,2185,-3274,1892,2436,-1958,-64
21531,1100,-2818,2024,2574,-1850,-279
21541,358,-1980,2323,2535,-1700,-459
21551,-150,-1875,2377,2374,-1674,-602
21561,-297,-2355,2434,2048,-1570,-798
21571,-231,-2710,1857,1729,-1487,-1034
21581,91,-2813,1388,1601,-1286,-979
21591,590,-2563,1120,1360,-1086,-605
21601,939,-2651,1031,1434,-706,-145
21611,740,-3321,939,1225,-544,123
21622,391,-3713,245,1141,-422,211
21632,19,-3517,-283,1490,-293,253
21642,-326,-3038,-626,1869,-231,325
21652,-564,-2376,-762,2114,-251,413
21662,-888,-1680,-958,2174,-305,551
21672,-1069,-1511,-811,2143,-393,611
21682,-876,-2020,-625,1908,-612,506
21692,-511,-2711,-783,1676,-787,576
21702,169,-2891,-844,1809,-657,814
21712,611,-3075,-599,2057,-528,1086
21722,962,-3988,-262,1952,-545,1382
21732,1409,-4676,-705,1614,-491,1488
21742,1939,-5051,-924,1821,-349,1568
21752,2504,-5444,-625,2008,-217,1721
21762,3253,-5509,-1083,2065,-164,1765
21772,3827,-5735,-1429,2330,-96,1877
21782,4113,-6036,-2002,2285,-156,1892
21792,4468,-6852,-2561,2142,-252,1919
21802,4793,-8130,-2867,1976,-462,2135
21812,5077,-9459,-3805,2061,-750,2557
21823,5454,-10214,-3926,2299,-1109,3262
21833,5361,-10026,-3724,2597,-1488,3892
21843,5603,-9035,-3430,2956,-1659,4493
21853,5801,-8091,-2783,3193,-1597,5181
21863,5727,-7263,-2300,2606,-1532,5459
21873,6462,-6075,-2673,2539,-1285,5346
21883,6239,-6486,-1948,2708,-1224,5762
21893,6442,-6963,-2959,2809,-1042,5944
21903,5942,-6709,-2562,3041,-1056,6174
21913,6041,-6408,-2208,3355,-1171,6380
21923,6437,-6057,-1849,3632,-1361,6518
21933,6776,-5251,-1687,4058,-1516,6580
21943,6994,-4092,-1643,4395,-1541,6458
21953,6796,-2542,-992,4456,-1648,6218
21963,6789,-1344,-667,4521,-1864,6019
21973,7207,-1105,-642,4525,-2215,5831
21983,7751,-1100,-1063,4628,-2484,5675
21993,8669,-232,-1809,4956,-2575,5344
22003,9889,1133,-2389,5562,-2510,5289
22013,10748,4179,2077,5904,-2368,5239
22024,13810,19430,16653,2174,-7483,1981
22034,3889,-941,160,-1748,-5946,6794
22044,10924,-4758,-15591,9312,-1523,6202
22054,20437,396,-1143,12772,1815,108
22064,7033,14467,-3849,8201,-3360,-1123
22074,4855,28620,-5784,8066,-4002,-2047
22084,17803,19262,-1593,2843,-4113,-928
22094,12806,11496,-3467,1142,-6332,-2195
22104,7830,13246,-7037,1844,-5886,-5749
22114,12644,20014,-8347,2111,-4433,-11112
22124,20606,20935,-7596,-443,-5479,-12584
22134,24246,13949,-6060,-4433,-7248,-13966
22144,30887,6802,-6125,-9267,-8067,-16217
22154,-32768,2997,-8949,-15131,-7815,-17734
22164,-32768,1557,-10873,-21310,-5541,-19076
22174,32698,1667,-31073,-26479,-5324,-18375
22184,-32768,-12743,-6389,-19987,4924,-11800
22194,27620,-21084,-9088,-28269,3422,-12318
22204,30499,-19570,29181,-26714,9592,-11648
22214,-2058,8845,-29681,-15499,-1751,-7045
22224,-32768,-19166,4129,-15300,11589,7340
22235,2079,-28333,4659,-3943,5081,-4227
22245,3051,15352,-7742,-4051,7140,-4568
22255,4619,18816,9445,-7951,5981,931
22265,13196,-2667,-3162,-9169,2077,943
22275,12139,-12499,-1832,-4394,3059,2455
22285,10095,-4365,297,696,4244,921
22295,7512,4952,1722,3044,3983,1005
22305,6329,4028,1676,3202,3172,1111
22315,6597,-1446,602,3257,2532,1007
22325,6732,-3966,-32,3302,2271,1305
22335,6328,-3191,-74,3725,2193,1534
22345,5923,-2505,32,3590,2004,1692
22355,5647,-2826,114,3060,1802,1847
22365,5371,-3191,-508,2926,1571,1940
22375,4985,-3430,-754,3358,1344,2173
22385,4742,-3186,-851,3700,1126,2178
22395,4288,-1971,-672,3705,925,2075
22405,3469,-587,-149,3256,638,1931
22415,2892,-43,243,2445,242,1676
22425,2789,-98,-171,1569,-45,1366
22435,3041,-304,-812,1168,-230,1038
22445,2977,-626,-1019,979,-419,765
22455,2887,-919,-1378,916,-596,453
22465,2585,-1319,-1183,1044,-784,337
22475,2176,-1567,-785,1015,-1040,49
22485,1840,-1472,-404,835,-1393,-157
22495,1847,-1353,-207,528,-1772,-327
22505,1955,-1294,157,-86,-2062,-480
22515,2035,-1035,-318,-750,-2242,-756
22525,2511,-533,-681,-1300,-2542,-887
22535,3060,-172,-1512,-1590,-2686,-860
22545,3752,-153,-1852,-1697,-2587,-774
22555,4245,-535,-1676,-1859,-2397,-557
22566,4978,-1118,-1226,-1816,-2140,-454
22576,5543,-1449,-318,-1585,-1916,-331
22586,5882,-1855,1140,-1263,-1907,-301
22596,6345,-2365,2337,-1214,-2127,-315
22606,6698,-2327,3050,-1281,-2411,-380
22616,7100,-2132,3671,-1377,-2579,-525
22626,7746,-1953,3438,-1838,-2622,-558
22636,8298,-2141,2354,-2179,-2567,-450
22646,7945,-2640,2182,-3078,-2546,-566
22656,7485,-2342,2297,-4062,-2431,-1285
22666,7294,-1290,2169,-4215,-2331,-1828
22676,6846,-457,1932,-3644,-2678,-1883
22686,6824,-646,1636,-3234,-3071,-1658
22696,7846,-1246,1177,-2709,-2969,-1670
22706,8349,-1909,2250,-2072,-2680,-1771
22716,8183,-1712,2571,-1638,-2489,-2196
22726,8700,-1518,2665,-1152,-2261,-2218
22736,8719,-1700,2407,-1331,-2100,-2289
22746,8599,-1964,2259,-1864,-1958,-2690
22756,8738,-2329,1890,-2428,-1870,-2963
22766,8749,-3239,1517,-2707,-1795,-3124
22776,8402,-4380,1114,-2753,-1649,-3196
22786,7856,-5276,1109,-2533,-1426,-3261
22796,6895,-5619,865,-2097,-1285,-3303
22806,5410,-5388,979,-1671,-1110,-3234
22816,3904,-4970,1156,-1340,-1070,-3137
22826,2630,-4381,2118,-1351,-1210,-2957
22836,1760,-3661,2288,-1636,-1207,-2836
22846,1349,-3442,2456,-1994,-1204,-2712
22856,1078,-3819,2445,-2224,-1215,-2642
22866,786,-4131,1992,-2215,-1162,-2609
22876,497,-4242,1348,-1901,-962,-2511
22886,-27,-4299,994,-1771,-729,-2390
22896,-480,-4220,574,-1737,-565,-2316
22907,-896,-4240,639,-1577,-451,-2163
22917,-1175,-4248,814,-1424,-481,-1971
22927,-1020,-4210,1033,-1235,-551,-1731
22937,-510,-4047,1283,-1000,-498,-1470
22947,-195,-3707,1979,-896,-442,-1241
22957,-107,-3022,2559,-972,-371,-1077
22967,-96,-2417,2480,-1095,-270,-943
22977,-7,-2215,2236,-1353,-201,-782
22987,290,-2246,1980,-1630,-85,-638
22997,696,-2252,1675,-1758,84,-564
23007,1281,-2485,1422,-1704,156,-545
23017,2504,-2956,1353,-1521,266,-573
23027,4117,-3404,870,-1323,530,-584
23037,5726,-3541,374,-1034,972,-557
23047,6682,-3434,328,-827,1359,-526
23057,7107,-3163,338,-858,1480,-603
23067,7464,-3046,298,-889,1344,-667
23077,7602,-2933,362,-940,1100,-609
23087,7283,-2638,137,-990,873,-551
23097,6562,-2595,198,-881,723,-444
23107,5548,-2533,634,-944,551,-375
23117,4978,-1932,804,-1061,375,-391
23127,4702,-1503,1015,-1046,229,-268
23137,4410,-1444,1133,-1171,76,-90
23147,4255,-1550,1074,-1245,16,16
23157,4002,-1633,1022,-1233,8,135
23167,3810,-1703,919,-1134,65,284
23177,3743,-1790,739,-1025,179,457
23187,3701,-1777,599,-915,308,634
23197,3623,-1689,525,-771,448,867
23207,3466,-1551,546,-604,563,1121
23218,3289,-1386,754,-533,632,1324
23228,3251,-1080,808,-615,644,1424
23238,3301,-934,871,-626,651,1555
23248,3168,-938,927,-658,635,1708
23258,3061,-994,1006,-653,612,1821
23268,3091,-1017,1047,-684,594,1867
23278,3180,-931,1004,-742,559,1908
23288,3245,-895,997,-741,556,1980
23298,3157,-975,1043,-751,534,2044
23308,3086,-1001,1078,-725,513,2074
23318,2986,-906,1090,-700,501,2088
23328,2860,-850,1011,-650,502,2104
23338,2748,-969,946,-499,536,2122
23348,2545,-1127,915,-326,577,2123
23358,2353,-1159,825,-162,571,2036
23368,2254,-1156,894,75,520,1964
23378,2157,-1283,989,357,404,1898
23389,2253,-1423,990,549,281,1840
23399,2652,-1286,914,712,250,1822
23409,2894,-1054,864,879,234,1905
23419,2916,-1046,986,1027,240,1955
23429,2980,-1418,1044,1136,100,1972
23439,3388,-1895,1002,1410,70,1980
23449,3566,-2107,1058,1735,183,1991
23459,3467,-1832,1198,1804,219,1953
23469,3386,-1356,1333,1693,229,1983
23479,3280,-1275,1561,1509,196,2041
23489,3240,-1516,1760,1207,121,2023
23499,3521,-1893,1976,1000,46,1968
23509,4067,-2211,1983,852,14,1832
23519,4544,-2500,1745,881,-15,1708
23529,4645,-2748,1797,979,-63,1656
23539,4546,-2943,1853,1087,-152,1537
23549,4498,-3047,1886,1137,-272,1388
23560,4515,-3126,1867,1135,-406,1260
23570,4594,-3287,1805,1090,-544,1134
23580,4739,-3474,1767,1053,-657,1006
23590,4868,-3662,1682,1072,-769,884
23600,4929,-3739,1574,1096,-893,753
23610,5092,-3747,1320,1165,-965,640
23620,5230,-3680,923,1250,-932,560
23630,5187,-3573,649,1439,-822,502
23640,4739,-3357,631,1564,-730,427
23650,4409,-2890,522,1459,-682,294
23660,4203,-2485,435,1256,-647,218
23670,3960,-2274,536,1027,-637,127
23680,3676,-2278,702,833,-719,1
23690,3503,-2284,788,776,-821,-134
23700,3428,-2053,754,704,-856,-273
23710,3385,-1742,806,650,-815,-351
23721,3252,-1551,916,565,-757,-396
23731,3002,-1604,1191,517,-722,-424
23741,2738,-1642,1329,393,-712,-511
23751,2657,-1467,1375,298,-656,-610
23761,2552,-1328,1473,215,-583,-635
23771,2425,-1210,1525,75,-462,-641
23781,2288,-1194,1529,-28,-331,-631
23791,2180,-1185,1622,-94,-199,-622
23801,2086,-1214,1651,-145,-71,-636
23811,1979,-1145,1729,-179,40,-647
23821,1856,-1063,1734,-226,138,-642
23831,1791,-1056,1828,-233,219,-621
23841,1745,-1092,1912,-280,305,-591
23851,1703,-1153,1990,-273,388,-553
23861,1604,-1257,2138,-263,442,-492
23871,1517,-1281,2217,-261,470,-464
23881,1592,-1235,2140,-278,523,-419
23892,1660,-1244,2161,-219,628,-315
23902,1685,-1353,2273,-146,735,-225
23912,1713,-1359,2322,-129,823,-172
23922,1859,-1278,2288,-121,912,-149
23932,2156,-1312,2342,-92,995,-129
23942,2581,-1468,2152,-120,1087,-134
23952,3161,-1743,1811,-111,1166,-142
23962,3855,-2170,1556,-111,1239,-163
23972,4742,-2672,1387,-104,1235,-206
23982,5766,-3198,1242,39,1272,-206
23992,6500,-3381,1052,101,1276,-253
24002,6843,-3216,1090,64,1123,-388
24012,7077,-2899,1214,-93,809,-452
24022,7351,-2783,990,-173,407,-598
24032,7154,-2894,869,-197,25,-853
24042,6502,-2982,786,-374,-281,-1182
24052,6034,-2817,781,-749,-584,-1568
24063,5659,-2536,1176,-1180,-917,-1878
24073,5078,-2642,1580,-1443,-1281,-2054
24083,4579,-3200,1934,-1488,-1645,-2114
24093,4124,-3695,2289,-1258,-1781,-2106
24103,3313,-3622,2575,-1023,-1782,-2075
24113,2331,-3227,2829,-795,-1675,-1954
24123,1431,-2793,2734,-748,-1465,-1718
24133,651,-2371,2313,-830,-1185,-1470
24143,-286,-2151,1882,-801,-910,-1211
24153,-1155,-2175,1871,-741,-833,-1073
24163,-1564,-2079,1948,-709,-866,-1098
24173,-1599,-1905,2016,-539,-933,-1122
24183,-1449,-1904,2186,-482,-958,-1157
24193,-1280,-1979,2015,-578,-984,-1274
24203,-1107,-2233,1737,-666,-916,-1258
24213,-943,-2551,1239,-587,-844,-1194
24223,-661,-2755,679,-203,-641,-1079
24234,-571,-2753,375,158,-546,-918
24244,-418,-2428,300,527,-486,-900
24254,-239,-2359,446,573,-492,-478
24264,-119,-1867,267,634,-510,-66
24274,68,-1417,388,690,-490,283
24284,247,-1464,571,353,-577,617
24294,710,-2158,502,125,-682,911
24304,1684,-3458,424,444,-556,1184
24314,3230,-4657,737,837,87,1541
24324,4055,-5326,756,1154,563,1686
24334,4066,-4466,532,865,237,1099
24344,3878,-2271,73,692,-135,532
24354,4269,-1951,247,750,-457,680
24364,5679,-3388,98,307,-782,783
24374,7985,-4981,-318,365,-731,680
24384,9671,-6114,573,505,-379,658
24394,9871,-5440,264,486,-206,158
24404,9021,-4032,994,603,-4,305
24414,7643,-3081,1160,22,144,602
24424,6818,-2834,745,-586,243,833
24435,5982,-2760,364,-986,425,1054
24445,5361,-2404,229,-980,580,1187
24455,5365,-1981,348,-663,778,1384
24465,5389,-1811,1051,-302,872,1552
24475,5232,-1845,1710,-60,894,1573
24485,5251,-1804,2138,112,971,1511
24495,4993,-1951,2609,201,823,1452
24505,4774,-1980,3110,15,599,1425
24515,4516,-2269,3064,-235,276,1237
24525,4746,-2933,2917,-228,-67,1079
24535,4554,-3431,3011,97,-308,1027
24545,3890,-3433,3511,420,-572,886
24555,3018,-2865,3571,660,-888,790
24565,2737,-2198,3138,834,-1127,768
24575,2642,-1511,2625,948,-1189,821
24585,2777,-650,2022,715,-1125,852
24595,2888,-744,1901,935,-1085,997
24605,3052,-1222,2017,1005,-968,1104
24615,3147,-1121,2329,1081,-815,1063
24625,3427,-1061,2432,1131,-631,1151
24636,3932,-1527,2226,1495,-405,1259
24646,4408,-1996,2047,1801,-124,1269
24656,4322,-1482,1819,1808,243,1276
24666,3847,-835,1901,1475,524,1214
24676,3403,-782,1730,978,675,1197
24686,3011,-1113,1540,520,815,1229
24696,2581,-1489,1353,270,909,1230
24706,2006,-1867,1332,324,945,1285
24716,1353,-2452,1501,857,787,1340
24726,651,-2318,1591,1355,538,1539
24736,480,-1517,1356,1744,75,1530
24746,406,-802,903,1797,-348,1565
24756,572,-540,441,1565,-578,1588
24766,994,-912,13,1340,-577,1662
24776,1097,-1632,1,1234,-433,1763
24786,945,-1841,246,1172,-326,1842
24796,815,-1619,563,1131,-378,1943
24806,1006,-1627,577,1156,-532,2029
24816,1453,-1819,433,1203,-686,2104
24826,1834,-2023,258,1205,-740,2144
24837,2144,-2269,179,1198,-731,2116
24847,2582,-2590,127,1066,-711,2010
24857,3118,-2967,15,1027,-717,1885
24867,3616,-3378,-109,1041,-633,1810
24877,4178,-3675,-309,1043,-488,1734
24887,4697,-3920,-274,991,-401,1619
24897,5008,-4273,-172,1002,-394,1412
24907,5073,-4718,-8,1052,-425,1180
24917,5114,-4930,76,1139,-441,920
24927,5180,-4856,97,1089,-508,677
24937,5129,-4724,27,1026,-581,518
24947,5031,-4707,-103,931,-587,408
24957,4799,-4657,-78,900,-575,306
24967,4375,-4472,120,882,-553,252
24977,3867,-4122,403,791,-541,203
24987,3327,-3855,746,662,-561,182
24997,2818,-3497,1019,565,-538,191
25007,2417,-3176,1321,528,-502,247
25017,2180,-2866,1462,432,-441,321
25027,1848,-2554,1453,259,-367,352
25038,1629,-2498,1507,109,-337,344
25048,1590,-2577,1746,137,-349,324
25058,1750,-2468,1875,294,-395,347
25068,1955,-2316,1890,475,-429,389
25078,2214,-2459,1877,592,-426,381
25088,2356,-2587,1861,583,-385,327
25098,2479,-2535,1924,473,-351,255
25108,2381,-2500,2125,426,-367,241
25118,2127,-2644,2360,347,-460,270
25128,2006,-2762,2411,256,-553,293
25138,2092,-2845,2234,228,-613,331
25148,2122,-2862,2133,252,-602,443
25158,2090,-2791,2100,293,-552,580
25168,2071,-2807,2074,363,-533,691
25178,1976,-2796,2060,438,-533,794
25188,1842,-2617,2034,469,-568,858
25198,1858,-2536,2009,463,-618,893
25208,1871,-2585,2088,471,-650,936
25218,1763,-2552,2167,382,-661,921
25228,1761,-2589,2157,290,-676,883
25239,1896,-2616,1978,229,-661,866
25249,1932,-2565,1815,250,-584,921
25259,1908,-2572,1776,314,-512,977
25269,1896,-2726,1718,407,-490,1008
25279,1799,-2747,1771,547,-494,1068
25289,1676,-2549,1810,597,-514,1120
25299,1616,-2425,1727,540,-588,1127
25309,1687,-2667,1607,531,-659,1110
25319,1649,-2788,1583,571,-698,1107
25329,1645,-2610,1520,547,-691,1110
25339,1647,-2609,1382,597,-705,1144
25349,1552,-2816,1366,654,-680,1177
25359,1432,-2757,1291,691,-656,1199
25369,1248,-2642,1214,617,-636,1186
25379,1120,-2665,1118,462,-621,1135
25389,1080,-2820,1023,337,-603,1112
25399,999,-2893,899,282,-576,1176
25409,905,-2883,812,292,-554,1280
25419,904,-2923,756,313,-491,1430
25429,873,-2918,735,346,-431,1573
25440,808,-2741,758,421,-370,1761
25450,722,-2709,869,456,-315,1907
25460,633,-2680,900,367,-322,1992
25470,827,-2581,894,223,-302,2013
25480,1127,-2614,744,71,-287,2015
25490,1439,-3024,723,0,-282,2024
25500,1879,-3676,667,151,-309,2023
25510,2243,-4253,718,289,-354,1997
25520,2639,-4667,832,319,-511,1888
25530,2986,-4892,1284,190,-549,1890
25540,3133,-5208,1547,240,-605,1942
25550,3003,-6064,1876,271,-839,1992
25560,3085,-5902,1611,359,-927,2063
25570,3233,-5711,1374,387,-1058,2156
25580,3146,-5710,1110,272,-1165,2167
25590,3181,-5550,843,196,-1220,2191
25600,3171,-5434,562,120,-1215,2211
25610,3122,-5431,413,34,-1222,2219
25620,3086,-5370,420,-50,-1228,2270
25630,2971,-5323,457,-43,-1269,2420
25641,2749,-5273,566,-62,-1321,2559
25651,2525,-5152,513,-60,-1417,2665
25661,2416,-4773,372,-71,-1439,2771
25671,2179,-4319,356,-176,-1463,2819
25681,1948,-4312,380,-221,-1549,2820
25691,1971,-4268,476,-134,-1613,2844
25701,2005,-3919,451,-94,-1660,2867
25711,1978,-3721,282,104,-1710,2947
25721,1950,-3864,307,452,-1671,3130
25731,1881,-3812,256,737,-1620,3258
25741,1875,-3442,313,857,-1583,3339
25751,2087,-3309,286,889,-1658,3354
25761,2142,-3467,211,953,-1756,3400
25771,2253,-3686,174,1130,-1908,3475
25781,2362,-3660,257,1306,-2118,3589
25791,2586,-3446,321,1471,-2321,3701
25801,2952,-3308,204,1719,-2464,3733
25811,3628,-3080,-7,2034,-2451,3718
25821,4357,-2410,-170,2374,-2305,3635
25831,4937,-1326,207,2556,-2247,3524
25842,6095,-147,427,2578,-2048,3437
25852,7245,821,789,2772,-2194,3321
25862,8770,1698,1672,2873,-2541,3522
25872,10912,2571,2879,3390,-2923,3357
25882,12475,4315,4467,4065,-3331,3087
25892,14005,7267,5134,4730,-3626,2807
25902,15103,10090,7137,5411,-3876,2590
25912,15572,12901,9167,5471,-3969,1868
25922,16032,15043,10538,5245,-3740,264
25932,15336,16013,10675,4938,-3421,-1903
25942,13379,17446,8957,4815,-3381,-3957
25952,14118,18605,2987,6092,-3336,-5662
25962,20088,19143,-3266,6899,-3141,-7762
25972,22727,17529,-5008,6142,-5339,-9898
25982,27400,14102,-3370,3548,-7105,-12429
25992,-32768,6764,-2778,-62,-8888,-14554
26002,-32768,-1092,357,-3723,-10189,-16354
26012,-32768,-7806,6830,-7864,-9321,-19592
26022,-32768,-10592,11121,-11517,-6793,-23109
26032,-32768,-14231,11825,-14001,-4042,-24596
26043,-32768,-13531,7867,-17033,-883,-24351
26053,-32768,-3979,7424,-22823,2794,-24700
26063,27822,98,13053,-26894,5302,-23548
26073,29604,2257,497,-8905,6932,-12729
26083,30848,9193,-1826,-16155,2949,-15276
26093,26079,1655,3220,-17279,3197,-9299
26103,22611,-4761,61,-17121,5087,-7673
26113,19009,-2945,-1985,-14668,4111,-3931
26123,13407,850,1884,-14601,3869,-1686
26133,11438,-7234,1582,-12361,4051,438
26143,13309,-3698,1632,-7690,4686,581
26153,11974,-2514,744,-3201,4893,1913
26163,7462,4369,6019,-3062,4160,28
26173,8020,2606,2512,-2092,3347,-10
26183,8225,-430,-202,-1036,2645,237
26193,7911,-56,-2167,-132,1968,33
26203,7196,-403,-3423,762,1482,272
26213,6675,-1231,-4319,1562,1271,406
26223,6113,-1738,-5025,2327,1221,430
26233,5196,-1949,-5277,3179,1200,232
26244,3984,-2228,-5412,3979,894,-73
26254,3264,-2080,-6276,4773,658,-243
26264,3371,-1683,-5809,5408,516,-344
26274,3618,-1534,-4987,5358,223,-193
26284,3452,-1390,-4418,4861,47,-105
26294,3197,-764,-3939,4059,-114,96
26304,2733,-605,-3047,3189,-428,485
26314,2253,-932,-2450,1775,-756,712
26324,1802,-1340,-2036,446,-1086,791
26334,1032,-1801,-2206,-184,-1367,953
26344,337,-2335,-2282,-507,-1524,1113
26354,-177,-2928,-2050,-839,-1622,1154
26364,-472,-3376,-1614,-939,-1700,1070
26374,-560,-3511,-1073,-1113,-1719,938
26384,-566,-3294,-989,-1308,-1745,812
26394,-808,-3212,-946,-1495,-1822,853
26404,-942,-3429,-627,-1526,-2021,920
26414,-947,-3793,-383,-1421,-2146,932
26424,-664,-4105,-197,-1194,-2362,928
26434,-255,-4092,94,-875,-2366,973
26444,131,-3502,97,-562,-2235,949
26454,436,-2601,205,-294,-2034,903
26464,580,-1764,229,-381,-1814,846
26474,709,-1258,-176,-600,-1815,728
26484,1087,-1463,57,-699,-2065,579
26495,1921,-2035,293,-1078,-2182,425
26505,3010,-2223,58,-1361,-2263,248
26515,4293,-2110,736,-1240,-1953,73
26525,5002,-2176,1569,-915,-1680,-34
26535,5413,-2386,1860,-667,-1652,-145
26545,6360,-2439,1724,-681,-1601,-402
26555,7246,-2396,1590,-805,-1562,-783
26565,6713,-2424,1238,-894,-1564,-1145
26575,5786,-2642,1326,-1007,-1571,-1255
26585,5370,-3036,1201,-1338,-1767,-1245
26595,5123,-3637,1565,-1445,-1945,-1264
26605,4581,-4278,2104,-1430,-2102,-1263
26615,3999,-4598,2054,-1162,-2192,-1224
26625,3785,-4380,1924,-956,-2046,-1248
26635,3548,-3608,1493,-1028,-1757,-1340
26645,2969,-3091,1190,-1364,-1399,-1496
26655,2123,-3284,1293,-2146,-1242,-1750
26665,1569,-4281,1036,-1926,-1332,-1933
26675,821,-5683,2771,-1519,-1485,-1575
26685,-144,-6482,4017,-1187,-1778,-1441
26695,-462,-6289,5389,-699,-1857,-1394
26705,-679,-5450,5252,206,-1509,-929
26715,-974,-4553,4205,1081,-838,-319
26725,-1210,-3520,4007,1127,-154,-183
26735,-1521,-1940,4299,427,617,-452
26746,-1672,-444,4542,-430,1020,-789
26756,-2223,-106,4612,-960,1116,-777
26766,-2687,-1000,4636,-959,718,-743
26776,-2575,-2346,4641,-480,223,-831
26786,-1736,-3138,4801,229,-86,-899
26796,-529,-2883,4886,1051,55,-723
26806,467,-1861,4363,2270,762,-493
26816,457,-840,5501,2449,1406,-319
26826,-80,-71,5422,1507,1548,-403
26836,204,-397,4264,1123,1425,-497
26846,1920,-1717,4841,917,1371,-705
26856,4104,-2501,4003,668,1538,-1003
26866,4590,-2382,3570,936,1347,-1206
26876,3151,-1887,4602,1227,873,-1184
26886,1816,-1391,6143,1066,394,-1080
26896,2152,-1019,6655,738,172,-1230
26906,3409,-1535,7375,564,223,-1308
26916,3685,-2249,7445,363,326,-1153
26926,3268,-2622,6890,414,529,-1026
26936,3248,-3006,6428,211,655,-1074
26946,3564,-3178,5344,18,522,-1252
26956,3722,-3426,4316,126,299,-1219
26966,3839,-3992,3494,207,17,-1039
26976,4104,-4567,3134,366,-192,-909
26986,4055,-4975,3258,600,-394,-709
26997,3721,-5051,3422,615,-601,-474
27007,3350,-4668,3282,359,-828,-239
27017,2896,-4197,2901,-2,-949,-1
27027,2112,-4053,2605,-239,-1052,372
27037,1022,-4209,2588,-201,-1146,787
27047,-147,-3982,2727,-80,-1201,1074
27057,-1330,-3661,3056,259,-1269,1299
27067,-2250,-3489,3111,548,-1378,1422
27077,-2533,-3268,2889,794,-1139,1486
27087,-2478,-3052,2526,714,-810,1512
27097,-2158,-3352,1943,650,-494,1456
27107,-1729,-3976,1703,666,-220,1481
27117,-1360,-4158,1861,601,-68,1572
27127,-835,-3918,2109,465,129,1622
27137,-241,-3835,2118,278,273,1520
27147,496,-3685,1894,-60,155,1411
27157,1519,-3700,2069,-215,-66,1357
27167,1833,-4358,2480,-493,-237,1450
27177,2854,-4634,1903,-827,-543,926
27187,4550,-4501,1863,-915,-758,609
27197,5351,-4834,2202,-1179,-1055,609
27207,5957,-5321,1455,-1353,-1726,322
27217,7486,-5790,870,-860,-2124,179
27227,8096,-6050,50,-244,-1997,224
27237,7887,-5322,24,78,-1318,-145
27248,6956,-3963,553,62,-819,-439
27258,6353,-2924,39,358,-688,-366
27268,6777,-3187,116,788,-762,30
27278,7574,-3652,603,508,-720,233
27288,7614,-3063,56,98,-725,-263
27298,7630,-2068,-569,119,-838,-391
27308,7384,-1237,-706,-151,-756,-71
27318,6999,-779,-1445,-420,-438,70
27328,6425,-967,-1706,-300,189,300
27338,6042,-1807,-941,-50,897,375
27348,4847,-3145,698,129,1290,222
27358,2007,-3232,583,-469,297,-470
27368,1741,-553,-828,-64,-239,-1640
27378,2414,1295,-500,1016,-241,-1816
27388,2257,1286,856,907,-283,-1387
27398,1690,785,1174,66,-431,-1455
27408,1577,-87,1409,-232,-510,-1750
27418,1519,-984,1718,-304,-565,-1854
27428,1369,-1508,1765,-227,-628,-1843
27438,1194,-1731,1833,-18,-641,-1770
27448,896,-1814,2034,112,-612,-1685
27458,603,-1782,2178,119,-521,-1591
27468,462,-1632,2050,30,-338,-1467
27478,381,-1544,1554,166,6,-1266
27488,250,-1683,1391,380,171,-1040
27499,158,-1904,1385,336,149,-781
27509,85,-2119,1532,373,-12,-583
27519,441,-2346,1622,453,-211,-531
27529,1070,-2403,1423,672,-334,-511
27539,1749,-2296,1474,1016,-300,-419
27549,2236,-2147,1737,1217,-2,-349
27559,2297,-1764,1727,1210,325,-398
27569,2063,-1412,1698,1210,481,-408
27579,1888,-1172,1651,1156,513,-309
27589,2024,-995,1358,1056,549,-181
27599,2431,-951,1128,1056,652,-49
27609,3125,-1055,1356,1066,706,-44
27619,4217,-1246,1372,974,811,-168
27629,5547,-1439,1300,815,940,-355
27639,7133,-1734,1219,731,1190,-590
27649,8564,-1913,841,692,1311,-840
27659,9277,-1880,213,573,1228,-1017
27669,9094,-1826,-340,472,1250,-1149
27679,7863,-2009,-238,339,1339,-1111
27689,6133,-2242,-178,277,1347,-1147
27699,4828,-2232,71,202,1293,-1226
27709,4014,-2001,366,247,1128,-1116
27719,3515,-1823,975,318,853,-897
27729,3312,-1676,1514,231,545,-749
27739,3565,-1520,1724,127,333,-666
27750,4076,-1588,1920,-67,231,-568
27760,4638,-1552,1771,-467,174,-538
27770,5040,-1470,1222,-697,146,-478
27780,5028,-1619,889,-791,212,-295
27790,4736,-1717,510,-835,291,-139
27800,4506,-1567,131,-863,378,-112
27810,4323,-1367,100,-813,445,-121
27820,4052,-1136,171,-900,416,-162
27830,3901,-1002,233,-919,366,-258
27840,3725,-1080,436,-911,275,-306
27850,3351,-1248,620,-891,121,-365
27860,2916,-1322,840,-818,-105,-455
27870,2494,-1250,950,-779,-345,-525
27880,2222,-1067,840,-836,-517,-545
27890,2078,-879,748,-900,-597,-518
27900,1923,-906,722,-919,-601,-453
27910,1699,-1176,818,-1029,-650,-406
27920,1576,-1419,727,-1146,-728,-407
27930,1630,-1594,657,-1055,-752,-422
27940,1669,-1758,694,-912,-749,-396
27950,1568,-1682,815,-854,-734,-350
27960,1469,-1506,894,-767,-753,-303
27970,1366,-1278,1036,-759,-753,-203
27980,1289,-1231,1200,-661,-774,-103
27990,1176,-1345,1421,-572,-768,0
28001,1080,-1440,1460,-501,-765,82
28011,926,-1395,1241,-321,-701,176
28021,779,-1380,1256,-152,-614,256
28031,561,-1284,1146,-142,-585,278
28041,421,-1235,846,-104,-578,289
28051,344,-1440,633,32,-603,319
28061,361,-1737,632,279,-578,403
28071,307,-1986,683,464,-570,476
28081,345,-2151,649,603,-601,495
28091,550,-2420,749,713,-606,516
28101,958,-2813,1054,684,-600,509
28111,1537,-3145,1233,456,-610,488
28121,2268,-3634,1412,360,-592,488
28131,2859,-4298,1341,337,-537,537
28141,3592,-4870,1123,242,-435,560
28151,4601,-5313,981,183,-254,476
28161,5600,-5514,784,89,-106,395
28171,6252,-5363,419,80,-33,427
28181,6531,-5243,123,191,-31,583
28191,6465,-5288,-177,307,-108,742
28201,6100,-5444,-584,451,-194,774
28211,5958,-5431,-1165,647,-217,795
28221,5980,-5378,-1394,1010,-278,894
28231,5679,-5192,-1102,1220,-524,1036
28241,5357,-4597,-956,1363,-794,1178
28252,5166,-4106,-626,1457,-1015,1484
28262,5046,-3906,-485,1455,-1163,1770
28272,5166,-3995,-741,1628,-1129,1924
28282,5269,-3976,-806,1994,-993,1981
28292,5405,-3604,-834,2397,-796,1954
28302,5457,-3523,-815,2667,-630,1966
28312,5426,-3874,-712,2792,-452,1962
28322,5613,-4149,-526,2726,-277,1878
28332,5894,-4329,-172,2383,-186,1830
28342,6084,-4672,-558,2025,-279,1822
28352,6622,-5109,-922,1901,-239,1989
28362,6749,-5217,-1181,1678,-334,2135
28372,6690,-5058,-1240,1658,-453,2117
28382,6686,-4660,-1389,1690,-495,2236
28392,6757,-4153,-1636,1670,-541,2197
28402,6726,-3569,-1758,1688,-652,2035
28412,6195,-2897,-1143,1756,-932,1827
28422,5420,-1991,-707,1854,-1170,1551
28432,5024,-1185,-484,1933,-1398,1180
28442,4277,-795,83,1986,-1622,876
28453,3401,-898,260,1936,-1841,569
28463,3179,-1300,373,2010,-1804,212
28473,2721,-1538,276,1895,-1574,3
28483,1945,-1221,205,1298,-1373,-180
28493,1158,-730,-280,441,-1546,-483
28503,1590,-349,-712,-311,-1643,-932
28513,1859,374,-918,-1157,-1362,-797
28523,1892,692,-549,-1262,-978,-639
28533,2129,47,-294,-548,-630,-385
28543,3295,-2612,1648,1459,-374,165
28553,3043,-3773,1534,1751,-64,385
28563,2280,-2247,1056,1842,52,227
28573,2549,-1403,2071,1761,17,192
28583,2666,-1400,3398,1137,-220,250
28593,3222,-1586,3229,705,-590,256
28603,4170,-1641,2596,873,-724,498
28613,4789,-2010,2999,1035,-665,707
28623,4752,-2384,3646,1111,-507,701
28633,4407,-1458,4216,972,-379,589
28643,4333,-12,4622,808,-406,526
28654,4349,367,4689,449,-707,521
28664,4888,686,3451,131,-819,388
28674,5373,204,3352,248,-624,553
28684,5045,99,3507,-99,-470,490
28694,4932,335,2994,-203,-398,440
28704,4764,89,2583,103,-361,805
28714,4281,-250,2021,132,-397,1040
28724,4489,-161,2713,261,-173,1085
28734,4125,-518,3106,-174,-161,1244
28744,3935,-1699,2524,472,-112,1337
28754,3648,-2010,2330,1130,11,1426
28764,3540,-998,2198,1289,208,1261
28774,3333,-442,2163,1070,354,1189
28784,2809,-903,2049,855,235,906
28794,3170,-1279,2309,636,206,725
28804,2975,-1487,2003,250,45,582
28814,2868,-1997,1720,165,-116,335
28824,2741,-2626,1378,257,-201,338
28834,2186,-2689,1548,514,-232,211
28844,1681,-2348,1315,1063,-238,-84
28855,1369,-2105,998,2079,-384,-173
28865,1463,-2203,857,3179,-482,32
28875,1362,-1660,1273,2991,-418,192
28885,1445,-191,1394,2095,-393,-14
28895,1213,1196,1774,975,-309,72
28905,1073,1101,2107,-174,-423,118
28915,802,-12,1623,-838,-493,-49
28925,830,-1172,1497,-950,-457,-167
28935,959,-1611,1748,-929,-412,-278
28945,843,-1124,2015,-959,-396,-389
28955,572,-411,2153,-1025,-435,-454
28965,281,15,2182,-1249,-527,-559
28975,106,119,2085,-1689,-728,-673
28985,110,117,1582,-2161,-857,-771
28995,326,-37,754,-2291,-949,-882
29005,785,-529,401,-2156,-931,-863
29015,1336,-1128,437,-2020,-834,-774
29025,1999,-1716,865,-1885,-747,-695
29035,2603,-1996,1010,-2026,-701,-564
29045,3301,-2046,1194,-2139,-712,-492
29056,3854,-2132,832,-2344,-858,-464
29066,4671,-2153,-26,-2583,-1158,-576
29076,6182,-2081,-778,-2821,-1699,-894
29086,8748,-1785,-2296,-2816,-1844,-1078
29096,10481,-1474,-3008,-1906,-1470,-738
29106,9722,-1555,-2861,-858,-1214,-437
29116,8214,-1646,-2633,-121,-1150,-460
29126,6856,-1103,-3320,12,-956,-382
29136,7546,-1665,-1913,-269,-383,202
29146,7681,-3146,-445,-2079,-133,-97
29156,7081,-1588,-2708,-2377,237,-1521
29166,5649,2081,-2782,-1730,989,-1723
29176,4703,2397,-851,-2069,487,-1305
29186,4458,722,-1532,-3145,-348,-942
29196,4905,-885,-3250,-2532,-617,-1191
29206,5451,-988,-2864,-1468,-298,-1249
29216,5336,25,-2113,-901,-164,-874
29226,4863,566,-1215,-817,31,-597
29236,4330,377,-232,-1093,379,-524
29246,4190,-333,-103,-1321,543,-603
29256,4142,-770,-42,-1055,762,-887
29266,3952,-563,-414,-958,869,-1022
29276,3763,-383,-753,-907,918,-1062
29287,3695,-547,-1073,-817,932,-1102
29297,3651,-1025,-1071,-557,894,-1138
29307,3671,-1427,-978,-252,820,-1149
29317,3717,-1571,-980,135,757,-1156
29327,3793,-1445,-751,498,668,-1117
29337,3939,-1245,-527,708,610,-1011
29347,3954,-1261,-231,611,506,-942
29357,3951,-1055,-16,153,443,-954
29367,4078,-786,128,-163,433,-853
29377,4187,-738,460,-736,444,-702
29387,4268,-820,386,-1337,390,-588
29397,4178,-1144,240,-1422,354,-417
29407,4047,-1635,356,-1319,332,-289
29417,4000,-2021,555,-1149,294,-277
29427,4138,-2241,657,-896,212,-396
29437,4497,-2127,834,-656,189,-513
29447,4742,-1534,571,-564,174,-603
29457,5027,-1078,553,-507,259,-535
29467,5344,-1042,489,-592,370,-327
29477,5786,-1082,371,-707,612,-205
29487,6217,-893,163,-596,965,-63
29497,6503,-1028,610,-377,1298,329
29507,6500,-734,360,55,1488,618
29517,5952,-839,1061,937,1390,1311
29527,5749,-418,1700,1124,918,1621
29537,5549,135,2648,-379,448,2329
29547,5889,3019,-1044,1591,526,583
29557,6807,4090,2191,1434,-321,1842
29567,4344,2797,2693,-508,-475,2252
29577,6586,4413,1386,1128,-158,1222
29587,5239,2557,1592,830,-575,2560
29597,4716,1557,733,-203,-653,2246
29607,5625,1973,1359,730,-331,1937
29617,4529,686,2030,704,-405,2882
29627,3825,338,1498,-106,-775,2690
29637,4898,-608,750,138,-913,2040
29647,5561,-2630,610,-514,-1291,1762
29657,5909,-4297,-490,-33,-822,1728
29667,5351,-5042,23,506,-185,1851
29677,4555,-4480,526,970,212,1450
29687,4045,-3635,1321,1395,242,1314
29697,3112,-2698,788,1387,49,1358
29707,3338,-1984,937,941,-98,1048
29717,3418,-2623,1420,583,-217,675
29727,2743,-3407,1562,75,-460,484
29737,2105,-3483,1391,-507,-901,122
29747,2179,-3209,1373,-787,-1255,-232
29757,2082,-3054,176,-390,-1490,-431
29767,2116,-2483,482,-276,-1520,-371
29777,1893,-916,830,-1123,-1548,-333
29788,1918,438,-136,-1122,-1505,-372
29798,2192,146,415,-160,-1337,86
29808,2000,-1235,909,251,-1293,500
29818,2202,-2649,725,664,-1334,731
29828,2356,-3424,141,929,-1370,889
29838,2541,-3547,-641,859,-1433,994
29848,2827,-3020,-1106,373,-1037,1112
29858,3023,-1924,-1092,-271,-399,907
29868,3004,-1142,-1615,-982,439,510
29878,2939,-1297,-1834,-1987,1079,811
29888,2768,-1478,-776,-3524,1828,1089
29898,2548,-1020,-354,-5373,2388,934
29908,2336,-749,196,-6653,2546,946
29918,2147,-1599,361,-7650,2444,1236
29928,1587,-3937,-184,-7880,2578,2047
29938,1264,-7705,-655,-5561,2124,1727
29948,1288,-10203,-3694,-2010,1942,1143
29958,1399,-7859,-1607,-362,1243,804
29968,1488,-3059,-2282,-1680,734,11
29978,2617,1403,-2473,-2570,1066,-320
29988,3644,2996,-1685,-3102,1433,177
29998,2989,1571,-1711,-4389,1035,950
30008,2152,-845,-2603,-5240,692,1238
30018,1965,-3280,-3310,-4997,370,1500
30028,1981,-4687,-3060,-4870,499,1566
30038,2298,-4516,-2808,-4745,602,1110
30048,2663,-3192,-3172,-4345,631,842
30058,2761,-2043,-3479,-4116,554,979
30068,2779,-2048,-3590,-3773,327,1200
30078,2576,-3272,-3460,-3706,155,1306
30088,2293,-4431,-3753,-3576,159,1178
30098,2427,-4445,-4122,-3152,256,1055
30108,3029,-3543,-3864,-2736,565,1038
30118,3166,-3286,-4369,-2773,909,972
30128,3362,-4145,-4613,-2505,1236,934
30138,3246,-5228,-4394,-2242,1850,1087
30148,3640,-4862,-4260,-2008,2167,845
30158,4420,-2837,-2898,-2042,2480,344
30168,3472,-541,-2707,-2624,2058,-40
30178,4124,462,-3171,-2997,1518,-175
30188,4606,-230,-4358,-2829,516,3
30198,5602,-475,-4600,-2143,209,-178
30208,6105,-697,-4751,-1907,-340,-118
30218,6293,-840,-4568,-1712,-997,-323
30228,6445,-1090,-4486,-1435,-1786,-582
30238,6211,-226,-3978,-1011,-2728,-753
30249,5962,-116,-3343,-159,-3735,-788
30259,5873,381,-2531,508,-4658,-854
30269,5519,889,-1505,752,-5540,-1017
30279,4911,593,-678,942,-6400,-1173
30289,4594,13,-308,1165,-6918,-1325
30299,4229,-112,220,1313,-7270,-1364
30309,3638,-259,385,1015,-7399,-1347
30319,3318,-570,923,795,-7405,-1318
30329,2949,-1577,807,775,-7352,-1210
30339,3730,-3607,-593,739,-6645,-1107
30349,6446,-4987,-3223,757,-5173,-853
30360,1848,5652,-5829,-1053,-3729,-1882
30370,5758,-2257,-3816,-922,-4317,-1495
30380,2451,-10081,-2984,2283,-3620,300
30390,1598,-3449,-666,4624,-2441,-1622
30400,372,5989,93,4676,-2434,-2434
30410,1507,4831,618,2555,-2949,-1678
30420,1261,1528,-519,969,-2950,-1243
30430,2849,-1130,-576,1393,-2951,-1342
30440,2486,114,-776,1407,-2975,-1217
30450,1834,1159,-960,960,-3036,-975
30460,1463,690,-1574,287,-3181,-690
30471,1637,-368,-1959,195,-3290,-524
30481,1942,-1278,-2600,644,-3206,-512
30491,2423,-1876,-2753,923,-2899,-761
30501,2645,-1901,-2868,1310,-2255,-1079
30511,2217,-1574,-2563,2204,-1696,-1260
30521,1629,-973,-1917,2929,-1424,-1231
30531,1314,-252,-1360,3158,-1393,-1178
30541,1371,207,-998,3167,-1413,-1215
30551,1423,144,-686,3137,-1431,-1251
30561,1450,-172,-764,3079,-1418,-1265
30571,1394,-489,-914,3179,-1342,-1293
30582,1366,-830,-1007,3368,-1225,-1408
30592,1287,-1026,-1068,3585,-1121,-1452
30602,1067,-1054,-1334,3843,-1001,-1436
30612,835,-952,-1539,3925,-916,-1459
30622,715,-746,-1527,3785,-829,-1525
30632,580,-729,-1397,3540,-737,-1662
30642,582,-1102,-1029,3397,-759,-1937
30652,485,-1836,-1089,3472,-739,-2124
30662,461,-2616,-1169,4051,-961,-2283
30672,581,-3244,-925,4448,-1196,-2157
30682,765,-3509,-1050,4804,-1402,-2104
30693,1074,-3372,-1049,4692,-1513,-2108
30703,1290,-2798,-1136,4294,-1618,-2105
30713,1423,-2113,-1085,3741,-1716,-2178
30723,1562,-1677,-1130,2688,-1816,-2149
30733,1673,-1588,-1221,1564,-1881,-2189
30743,1906,-1931,-1334,405,-1869,-2260
30753,2186,-2502,-1560,-694,-1764,-2247
30763,2416,-3058,-1808,-1340,-1532,-2247
30773,2655,-3585,-2059,-1448,-1248,-2391
30783,2883,-4011,-2305,-1258,-915,-2672
30793,3134,-4211,-2553,-1189,-560,-2959
30804,3317,-4161,-2816,-1256,-215,-3131
30814,3465,-4000,-2933,-1370,90,-3237
30824,3610,-3910,-2853,-1517,333,-3300
30834,3704,-3928,-2864,-1586,504,-3354
30844,3831,-4002,-2663,-1635,672,-3380
30854,3836,-4188,-2482,-1433,876,-3394
30864,3609,-4620,-2264,-877,771,-3554
30874,3539,-5151,-2340,-222,433,-3681
30884,3540,-5210,-2149,312,77,-3591
30894,3453,-4690,-2126,646,-321,-3513
30904,3440,-3926,-2167,845,-709,-3596
30915,3566,-3454,-2267,794,-1077,-3629
30925,3823,-3345,-2279,527,-1370,-3611
30935,4152,-3411,-2493,184,-1549,-3655
30945,4305,-3565,-2585,-104,-1636,-3768
30955,4555,-4056,-2741,-254,-1727,-3888
30965,5019,-4959,-2895,148,-1806,-3975
30975,5221,-5532,-2225,605,-1765,-4084
30985,4560,-5221,-1253,1069,-2002,-4236
30995,3883,-3951,-370,1231,-2258,-4370
31005,3664,-2730,77,1107,-2557,-4207
31015,3861,-2399,88,656,-2941,-3980
31026,4527,-2901,-608,366,-3112,-3782
31036,4992,-3524,-738,248,-2943,-3399
31046,4986,-3682,-419,-371,-2658,-3243
31056,4677,-3285,-189,-453,-2458,-3280
31066,4013,-3230,377,-104,-2176,-3192
31076,3322,-3105,390,434,-2045,-2869
31086,2978,-3169,336,1053,-2134,-2680
31096,2985,-3519,365,1604,-2286,-2664
31106,2643,-3543,35,2236,-2426,-2942
31116,2148,-2891,-931,3040,-2681,-3237
31126,2605,-2266,-2326,4063,-3097,-3273
31136,3319,-2402,-3212,5475,-3342,-2990
31147,4104,-2733,-3869,6833,-3308,-2813
31157,4832,-2917,-4240,8143,-3180,-2433
31167,5115,-3363,-5696,9950,-2312,-2321
31177,5412,-3796,-5656,12128,-827,-1980
31187,4798,-3741,-6440,13826,131,-1579
31197,3068,-3709,-8429,15830,510,-928
31207,2142,-2533,-9662,16925,418,-933
31217,2400,-318,-10926,17673,510,-2102
31227,4336,2449,-10191,19158,2364,-3529
31237,4023,4664,-5302,18070,4516,-2412
31247,2570,8580,-1438,13008,5380,-1843
31257,387,11662,3867,12231,4448,-619
31267,-479,5245,10400,9983,2181,-325
31278,3254,91,8517,4635,1238,-217
31288,6482,-2030,5306,2039,1596,398
31298,4561,-4128,2330,1275,887,643
31308,4224,-3940,1385,3497,81,1377
31318,5411,-1411,3070,4255,92,1428
31328,4471,-1291,5737,1344,-229,2238
31338,3434,-2412,4039,-764,-1166,2531
31348,3544,-3108,1812,-191,-1813,2415
31358,3856,-2969,2164,971,-1764,2691
31368,3159,-2628,1632,2239,-1929,2639
31378,3285,-2262,2471,2693,-1705,2771
31388,3227,-1366,2119,2737,-1688,2558
31398,2695,-965,1967,2528,-1520,2559
31408,2461,-1272,1840,1994,-1622,2990
31418,1678,-1922,1544,934,-1874,3359
31428,2041,-2445,646,72,-2507,3054
31438,2559,-1698,-300,-999,-2340,2640
31448,3027,-853,324,-1433,-1070,1850
31458,2764,-2042,-372,-1329,-711,1598
31468,1281,-2943,-256,-1589,-330,1901
31478,776,-2323,212,-1361,-658,1081
31488,902,-907,1136,-1345,-170,302
31498,1146,20,-1682,-61,-547,251
31508,2885,-1424,925,2537,-638,1552
31518,2985,-2322,2781,1616,-126,1688
31528,1908,-4861,-1204,1608,-359,462
31538,3443,-4944,-1575,3427,-719,-38
31548,3903,-1767,397,3732,1393,-138
31558,2422,1918,3523,2721,1891,-754
31568,607,2425,4812,2081,871,288
31578,-994,462,4532,454,-876,463
31588,1238,-1075,2052,-91,-2044,159
31598,2980,-2397,623,301,-2330,361
31609,3620,-3346,-693,505,-2251,500
31619,3901,-3970,-822,735,-1691,446
31629,3961,-4069,132,992,-929,299
31639,3698,-3416,1211,1343,-467,257
31649,3356,-2570,2464,1498,-455,531
31659,3014,-2228,3084,1224,-652,825
31669,3009,-2484,3037,989,-822,932
31679,2972,-3022,2805,977,-907,951
31689,2942,-2935,2391,1002,-961,935
31699,2883,-2195,2528,947,-950,906
31709,2820,-1489,2557,659,-953,888
31719,2831,-1481,2400,479,-965,1037
31729,2715,-2250,2271,560,-1043,1295
31739,3095,-2756,2595,700,-1084,1472
31749,2728,-3514,2642,558,-1129,1647
31759,2899,-3873,2692,614,-1010,1286
31769,3471,-3939,3264,1099,-869,1458
31779,3369,-4098,3858,1290,-805,1735
31789,3187,-4213,4098,1358,-741,1759
31799,3244,-4435,3915,1608,-654,1918
31809,3324,-4942,4054,1996,-515,2134
31819,3157,-5304,4416,2188,-465,2119
31829,3056,-5269,4889,2279,-468,2008
31839,2970,-5153,5216,2324,-527,1910
31849,2968,-5561,5388,2627,-633,1948
31859,3004,-6057,5252,2999,-713,1914
31869,3330,-6508,5064,3761,-656,1837
31879,3694,-6819,4850,4640,-423,1803
31889,3761,-6266,5099,5191,-127,1644
31899,3551,-5501,4702,5698,340,1823
31909,2652,-5500,4611,5956,737,2643
31919,2251,-5173,4996,5690,833,2664
31929,2517,-3883,4981,5123,971,2620
31939,2387,-2509,5426,4668,1144,2708
31950,2241,-2485,5716,4480,1292,2893
31960,1865,-3038,6163,4369,1292,3129
31970,1801,-3279,5911,4519,1291,2986
31980,1446,-3427,5380,4891,1370,2831
31990,621,-3310,5407,5350,1422,2591
32000,-63,-2682,5296,5717,1281,2279
32010,-369,-2299,4909,6226,1142,2071
32020,-401,-2175,4731,6272,887,1838
32030,10,-1820,4811,5675,615,1367
32040,456,-1790,4954,4932,567,1047
32050,628,-2042,5168,4041,501,958
32060,561,-2607,4999,3744,474,771
32070,912,-3403,4284,3702,160,786
32080,1286,-4257,3314,3848,-184,885
32090,1462,-4004,1696,3968,-145,374
32100,1498,-2404,157,4501,249,-344
32110,1539,-218,423,5006,620,-553
32120,1784,1633,-400,5136,714,-444
32130,1710,2171,-69,4505,732,-25
32140,1861,1756,-57,4088,902,-2
32150,2480,229,1231,4186,1166,-166
32160,2881,-178,1908,3618,1057,314
32170,2846,373,2091,3019,888,793
32180,2520,350,2240,2327,649,904
32190,2163,143,1102,1594,250,971
32200,2045,-681,-605,1294,-185,1090
32210,2182,-1726,-1750,1184,-348,1002
32220,2228,-2115,-2870,1218,-354,688
32230,2524,-1881,-3089,1752,-130,544
32240,2537,-1087,-2574,2316,-60,507
32250,2630,114,-1848,2496,111,438
32260,2840,1004,-1155,2452,187,554
32271,2935,1218,-533,2128,149,646
32281,2772,927,-120,1393,-67,593
32291,2295,882,-520,525,-162,358
32301,1902,1046,-894,11,-310,155
32311,1643,883,-1389,-410,-367,-71
32321,1628,522,-1588,-509,-377,-356
32331,1655,517,-1728,-621,-318,-623
32341,1811,851,-1067,-714,-255,-696
32351,1651,1081,-1207,-992,-450,-754
32361,1390,600,-1609,-914,-636,-748
32371,1163,183,-1146,-1225,-781,-826
32381,1198,265,-1259,-1528,-901,-1148
32391,1428,554,-1536,-1438,-939,-1355
32401,1477,768,-1236,-1778,-957,-1418
32411,1452,841,-1039,-2415,-1000,-1676
32421,1645,652,-1050,-2657,-1056,-2005
32431,1952,454,-1180,-2834,-1177,-2255
32441,2258,427,-1196,-3243,-1316,-2512
32451,2745,379,-1129,-3580,-1400,-2911
32461,3242,237,-1242,-3668,-1507,-3325
32472,3728,127,-1093,-3939,-1621,-3679
32482,4295,85,-924,-4569,-1783,-4159
32492,4926,-13,-1039,-5325,-1961,-4751
32502,5642,-373,-1249,-5886,-2159,-5285
32512,6432,-1030,-1230,-6595,-2356,-5694
32522,7414,-1588,-1470,-7411,-2514,-6220
32532,8602,-2241,-1656,-8111,-2580,-6779
32542,9850,-3132,-1829,-8672,-2572,-7254
32552,11403,-4164,-1572,-9316,-2479,-7849
32562,12915,-5119,-1680,-10035,-2302,-8381
32572,14142,-5879,-1408,-10565,-1961,-8932
32582,15045,-6599,-903,-11410,-1592,-9432
32592,15878,-7458,-698,-12304,-1192,-10002
32602,16809,-8242,-724,-13217,-681,-10455
32612,17410,-8734,-918,-14193,-204,-10797
32622,17776,-9244,-1561,-14960,305,-10907
32632,17536,-9302,-2221,-15795,885,-10714
32642,16834,-8954,-3160,-16528,1475,-10378
32652,15750,-8726,-4016,-17071,2130,-9759
32662,14310,-8467,-4647,-17531,2857,-9180
32673,13064,-7684,-4914,-17939,3715,-8807
32683,11653,-6469,-4223,-18026,4521,-8218
32693,9701,-5496,-2449,-17743,4791,-7335
32703,8970,-4751,-1506,-18040,4777,-6401
32713,11303,-5358,-2040,-17103,5388,-4579
32723,11079,-5962,-1159,-16503,6043,-3122
32733,10257,-4999,-836,-16329,6460,-2368
32743,9553,-3131,-1552,-15262,6602,-1297
32753,8203,-896,-1094,-14016,6651,-292
32763,7391,1194,-1002,-13494,6187,277
32773,6883,1658,-1082,-12858,5364,1084
32783,6824,967,-1784,-11637,4434,1861
32793,7223,-588,-1365,-9747,3885,2491
32803,7420,-1943,-436,-7978,3563,2690
32813,7723,-2052,364,-6539,3438,2644
32823,7453,-1211,996,-5419,3193,2627
32833,7086,-530,1020,-4477,2872,2770
32843,6277,78,848,-3658,2436,2834
32853,5537,564,549,-2842,1927,2865
32863,5001,732,153,-2033,1428,2913
32874,4899,802,-311,-1222,1047,2872
32884,4709,791,-490,-601,675,2786
32894,4710,648,-701,-38,385,2654
32904,4895,781,-814,561,131,2769
32914,4593,171,-1236,1072,20,2587
32924,4894,-64,-1189,1499,33,2485
32934,5143,230,-1387,1955,-19,2343
32944,5370,408,-1724,2392,-121,2257
32954,5847,373,-2041,2664,-207,2131
32964,5813,454,-1943,2549,-419,1924
32974,5114,499,-1920,2452,-802,1530
32984,4347,352,-2067,2626,-1089,1431
32994,3644,-343,-2269,2708,-1019,1539
33004,3668,-644,-2412,2919,-850,1347
33014,3546,-370,-2154,3056,-529,1163
33024,3208,-136,-1668,3165,-228,1029
33034,2758,-100,-1321,3139,-153,961
33044,2751,-89,-1105,2978,-139,878
33054,3068,-50,-1145,2705,-48,837
33064,3143,-11,-1056,2526,2,793
33075,3380,-197,-785,2231,10,535
33085,3311,-699,-1103,2068,-117,304
33095,2985,-1484,-1255,2214,-286,180
33105,2679,-1909,-469,2045,-595,86
33115,2142,-1514,-651,1428,-1157,-276
33125,2345,-998,-679,902,-1458,-668
33135,2621,-853,-628,628,-1795,-731
33145,2917,-1385,-934,670,-2239,-747
33155,3628,-1906,-622,559,-2513,-782
33165,4265,-2050,-1295,610,-2389,-879
33175,4669,-2003,-1054,1117,-2061,-897
33185,4365,-2040,-145,1264,-1897,-818
33195,4108,-2033,-260,835,-2038,-886
33205,4276,-2017,-325,612,-1865,-966
33215,4505,-1977,-48,460,-1443,-1111
33225,4288,-1874,729,35,-1073,-1196
33235,3959,-1839,1028,-268,-897,-1333
33245,3722,-2081,1401,-585,-819,-1426
33255,3803,-2191,1533,-917,-691,-1565
33265,4229,-2236,1608,-978,-454,-1593
33276,4356,-2430,1902,-1148,-233,-1511
33286,4132,-2963,2059,-1329,-8,-1710
33296,3664,-3445,1956,-1342,-36,-1987
33306,3327,-3455,1374,-1257,-169,-2207
33316,3521,-3036,1077,-1241,-282,-2442
33326,3926,-2324,1502,-1396,-244,-2697
33336,3840,-1665,2001,-1568,-393,-2799
33346,4035,-1334,1413,-1762,-525,-2787
33356,4820,-1829,1232,-1840,-370,-2683
33366,5135,-2490,1236,-1993,-33,-2681
33376,5019,-2695,1214,-2104,183,-2836
33386,5045,-2650,1274,-2206,338,-2882
33396,5323,-2860,1205,-2319,523,-2834
33406,5498,-3287,1488,-2427,749,-2728
33416,5301,-3618,1825,-2632,879,-2690
33426,5253,-3566,1597,-2916,927,-2657
33436,5525,-3578,1308,-2997,1043,-2478
33446,5397,-3706,1138,-3197,1097,-2305
33456,5303,-3686,821,-3280,1146,-2231
33466,5275,-3699,723,-3307,1188,-2104
33477,5242,-3664,581,-3347,1213,-2032
