t_ms,ax,ay,az,gx,gy,gz
0,490,601,3970,-149,7,45
10,445,575,3879,-57,23,48
20,361,611,3912,55,25,31
30,395,585,3995,25,20,32
40,450,613,4081,-73,37,34
50,401,478,4049,-76,11,22
60,398,462,4045,-54,26,35
70,375,454,4015,-35,26,55
80,344,493,4027,-41,36,71
90,297,540,4065,-97,35,83
100,262,605,4057,-196,18,83
110,268,573,4017,-251,-2,95
120,240,449,4003,-265,10,85
130,76,462,4085,-276,-12,46
140,-624,707,4247,-539,-169,-306
150,-24,662,4139,-611,-386,-407
160,695,502,4177,-552,-359,-351
170,695,237,4174,-630,-248,-328
180,677,139,4030,-483,-226,-166
190,541,158,3987,-400,-143,-144
200,534,200,3922,-328,-124,-103
210,525,270,3903,-167,-78,-29
220,578,245,3901,23,-47,26
230,518,276,4147,114,23,37
240,364,215,4174,22,17,40
250,331,248,4124,-5,-6,36
260,384,284,4109,-4,-11,27
270,369,298,4084,-9,-17,39
280,352,306,4051,-12,-16,46
290,354,271,4043,-26,-25,33
300,370,256,4047,-54,-34,34
310,369,264,4017,-72,-32,37
320,405,292,4020,-69,-30,41
330,421,288,4039,-55,-32,34
340,436,308,4028,-39,-22,38
350,427,300,4017,0,-13,35
360,418,289,4045,31,-6,24
370,420,328,4080,22,-8,31
380,403,366,4076,10,-13,15
390,393,408,4064,9,-21,9
400,404,384,4072,0,-29,17
410,380,357,4083,-17,-36,22
420,410,311,4098,-33,-43,24
430,425,335,4067,-39,-39,29
440,401,323,4044,-20,-40,13
450,436,293,4063,-13,-27,14
460,449,313,4076,-21,-15,24
470,439,301,4071,-36,-11,26
480,421,287,4025,-40,-6,23
490,383,266,4020,-1,-4,-13
500,440,272,4030,16,-2,-27
510,442,323,4093,8,0,-22
520,421,346,4102,7,-4,-21
530,400,329,4092,16,-10,-14
540,433,312,4084,4,-9,-2
550,404,325,4066,-3,-14,6
560,379,325,4011,7,-14,3
570,411,324,4013,12,-16,-5
580,434,338,4020,-4,-10,-8
590,405,358,4041,-26,-14,-9
600,394,333,4046,-34,-10,-20
610,451,315,4076,-43,-9,-18
620,450,328,4062,-50,11,-12
630,405,295,4091,-52,1,-2
640,412,277,4026,-45,-4,3
650,413,270,4003,-18,-6,-9
660,425,310,4020,-23,-6,-8
670,426,339,4033,-39,-6,0
680,416,343,4007,-21,4,-9
690,406,329,4049,-20,4,-10
700,403,339,4062,-41,-13,-4
710,418,314,4089,-35,-13,-12
720,430,292,4096,-34,-17,-14
730,437,313,4067,-29,-22,-9
740,420,305,4091,-2,-23,-14
750,433,312,4076,5,-26,-19
760,431,312,4095,-4,-24,-13
770,433,312,4045,0,-21,-6
780,419,325,4047,4,-19,-3
790,422,336,4028,-11,-17,-7
800,450,294,4041,-18,-20,-15
810,460,262,4067,-10,-6,-21
820,455,270,4061,4,2,-11
830,450,254,4052,11,8,-15
840,431,256,4050,17,10,-18
850,404,251,4062,27,9,-23
860,415,293,4060,22,8,-23
870,412,331,4055,3,7,-17
880,385,338,4041,-7,9,-7
890,397,322,4038,-27,-1,3
900,398,310,4041,-17,-5,-2
910,413,308,4062,-24,-8,8
920,415,298,4057,-23,-6,6
930,407,261,4068,-1,-17,-2
940,442,234,4096,31,-13,-16
950,436,244,4072,45,-12,-23
960,433,307,4048,61,-6,-32
970,431,334,4065,65,6,-34
980,419,373,4046,49,6,-17
990,416,390,4050,26,3,-5
1000,414,376,4040,18,8,3
1010,409,352,4020,28,6,6
1020,416,302,4033,64,11,-3
1030,388,296,4052,61,6,-3
1040,419,310,4033,61,7,-12
1050,427,328,3996,85,4,-11
1060,394,357,4015,112,4,-7
1070,440,352,4031,124,-3,-8
1080,467,341,4006,129,2,-4
1090,409,372,4026,173,10,3
1100,407,425,4059,142,0,19
1110,401,423,4049,104,2,18
1120,408,404,4073,48,-5,14
1130,445,414,4061,11,-7,15
1140,417,399,4057,14,-8,7
1150,446,358,4060,15,-8,6
1160,425,366,4047,24,6,16
1171,392,382,4021,44,1,12
1181,384,385,4026,71,3,-9
1191,383,410,4073,35,-4,-16
1201,413,405,4077,-6,-8,-12
1211,434,409,4105,-37,-10,-6
1221,429,398,4075,-52,-11,4
1231,420,355,4059,-34,-10,6
1241,421,366,4051,-5,-8,4
1251,452,358,4040,13,-1,1
1261,421,400,4055,-5,-6,9
1271,435,418,4019,-35,-5,21
1281,381,405,3975,8,4,-8
1291,425,396,4027,30,-5,-26
1301,430,403,4062,4,-4,-12
1311,414,437,4076,-23,1,-7
1321,414,410,4105,-65,-5,12
1331,397,391,3993,-38,-9,11
1341,415,350,4016,41,-9,-21
1351,443,386,4065,44,-13,-7
1361,431,402,4084,13,-11,-2
1372,445,409,4060,-25,-8,6
1382,419,377,4029,-30,-3,12
1392,419,358,4015,24,7,0
1402,429,340,4058,61,10,-11
1412,417,357,4074,49,2,5
1422,411,389,4071,42,-2,7
1432,432,370,4045,34,-4,0
1442,441,357,4026,49,-3,13
1452,387,368,4016,74,2,-2
1462,419,418,4011,81,-4,-8
1472,424,434,4065,72,-8,-19
1482,441,461,4074,52,-9,-11
1492,435,455,4055,49,-5,0
1502,442,432,4051,52,-12,6
1512,392,432,4073,80,-9,6
1522,386,470,4086,43,-13,2
1532,399,447,4068,15,-23,-7
1542,441,410,4016,45,-23,-16
1552,441,443,3997,80,-20,3
1562,410,445,4025,135,-17,-3
1573,423,425,4031,108,-16,-7
1583,433,449,4058,75,-11,-10
1593,429,460,4031,44,-10,-8
1603,442,458,4010,74,-10,-6
1613,421,430,4051,89,-4,-11
1623,420,417,4059,67,-3,-6
1633,446,455,4079,54,-6,-2
1643,430,479,4070,55,3,6
1653,427,465,4060,48,-5,15
1663,426,491,4055,44,1,8
1673,422,515,4025,30,-4,15
1683,413,553,4035,20,-8,19
1693,404,533,4027,23,-11,36
1703,415,509,4082,22,-13,31
1713,436,493,4095,15,-14,40
1723,437,472,4088,-15,-16,40
1733,428,499,4074,-35,-15,33
1743,418,556,4083,-44,-15,18
1753,400,631,4156,-70,-26,32
1763,382,743,4254,-95,-35,61
1774,400,887,4360,-164,-37,161
1784,386,1106,4502,-301,-54,307
1794,902,502,4443,-592,202,55
1804,360,684,4619,-475,170,358
1814,346,542,4471,-428,76,471
1824,2901,-719,4582,1342,18,-1661
1834,392,-71,5002,1304,729,-699
1844,314,844,4742,881,251,-123
1854,-403,1377,5063,1135,456,5
1864,78,1361,5150,995,367,-167
1874,112,1074,5066,678,424,-392
1884,-497,1035,5037,700,434,-275
1894,-178,1132,5016,639,367,-299
1904,-146,1077,4872,618,375,-382
1914,-105,1076,4562,-352,-105,-223
1924,-126,229,4008,410,478,-186
1934,-382,191,4321,833,267,-346
1944,210,462,4162,591,176,-282
1954,61,420,4133,626,391,-228
1964,-165,75,4058,635,430,-132
1975,181,-327,3921,767,440,-54
1985,270,-151,3901,916,514,9
1995,250,475,3987,859,546,105
2005,135,1022,3890,760,599,136
2015,57,1324,3845,686,665,202
2025,-47,1429,3910,494,710,303
2035,-125,1349,3851,261,738,429
2045,-179,1033,3737,279,753,527
2055,-66,835,3797,367,771,556
2065,-77,836,3782,454,795,561
2075,-102,1003,3827,509,815,546
2085,-182,1213,3830,470,772,540
2095,-269,1333,3745,416,701,475
2105,-179,1127,3778,432,653,351
2115,-183,975,3647,469,601,336
2125,-192,1074,3624,517,581,264
2135,-246,1236,3600,554,561,177
2145,-302,1246,3650,487,520,176
2155,-240,1219,3632,384,468,232
2165,-171,1138,3623,337,414,251
2175,-86,1064,3563,273,391,244
2185,-118,1036,3499,255,404,227
2195,-172,1094,3477,272,427,234
2205,-174,1145,3478,284,428,241
2215,-160,1154,3481,278,454,235
2225,-150,1273,3535,255,472,267
2235,-220,1399,3544,193,473,271
2245,-280,1351,3511,153,453,274
2255,-274,1370,3533,96,412,263
2265,-339,1360,3525,36,400,236
2275,-407,1354,3453,43,365,198
2285,-425,1389,3489,83,333,147
2295,-403,1439,3516,99,301,134
2305,-429,1588,3504,75,280,118
2316,-433,1566,3470,59,243,91
2326,-443,1514,3457,61,204,99
2336,-397,1503,3472,96,184,80
2346,-400,1521,3490,83,170,94
2356,-409,1568,3523,41,124,99
2366,-420,1532,3517,24,102,83
2376,-418,1465,3567,-9,89,109
2386,-426,1516,3608,-21,92,142
2396,-430,1554,3654,-52,75,189
2406,-426,1523,3645,-85,55,201
2416,-422,1453,3647,-99,44,196
2426,-436,1419,3635,-88,39,178
2436,-448,1408,3645,-83,26,168
2446,-463,1424,3626,-77,7,151
2456,-439,1407,3664,-81,-24,153
2466,-407,1433,3648,-93,-17,148
2476,-437,1421,3679,-122,-21,150
2486,-379,1380,3687,-139,-32,146
2496,-410,1410,3704,-143,-38,139
2506,-486,1489,3681,-161,-77,99
2516,-410,1334,3701,-67,-74,54
2526,-377,1305,3725,-35,-49,49
2536,-393,1380,3758,-29,-28,35
2546,-385,1403,3751,-44,-33,23
2556,-397,1408,3752,-71,-39,32
2566,-439,1454,3769,-75,-45,25
2576,-438,1428,3759,-85,-39,31
2586,-420,1361,3778,-120,-34,22
2596,-439,1306,3758,-118,-29,2
2606,-422,1305,3788,-80,-15,-11
2616,-423,1433,3830,-85,13,13
2626,-425,1441,3848,-106,15,24
2636,-432,1403,3855,-138,23,29
2647,-461,1356,3829,-170,8,36
2657,-476,1365,3787,-172,0,24
2667,-504,1357,3791,-147,-5,-9
2677,-492,1339,3793,-144,-16,-22
2687,-477,1335,3823,-128,-16,-28
2697,-458,1336,3817,-119,-10,-34
2707,-446,1330,3839,-111,-8,-39
2717,-443,1318,3843,-106,-7,-39
2727,-491,1314,3844,-103,-1,-50
2737,-471,1302,3856,-103,-2,-43
2747,-457,1294,3875,-103,4,-35
2757,-491,1297,3894,-92,6,-36
2767,-506,1309,3907,-93,24,-34
2777,-538,1314,3908,-98,16,-24
2787,-505,1308,3880,-63,24,-32
2797,-524,1329,3880,-37,19,-38
2807,-559,1355,3895,-49,30,-10
2817,-524,1374,3903,-57,18,0
2827,-516,1333,3877,-44,50,1
2837,-542,1349,3826,-33,37,22
2847,-525,1367,3814,-27,28,17
2857,-502,1364,3832,-43,40,-13
2867,-538,1354,3801,-41,52,-20
2877,-548,1390,3800,-51,39,-22
2887,-556,1390,3817,-48,19,-16
2897,-554,1357,3833,-64,11,7
2907,-519,1349,3847,-92,-11,25
2917,-495,1316,3837,-107,-7,16
2927,-539,1282,3836,-132,6,7
2937,-516,1271,3839,-150,-14,8
2947,-526,1278,3827,-155,-4,9
2957,-507,1293,3832,-153,8,-1
2967,-503,1283,3856,-160,3,7
2978,-527,1279,3816,-151,-9,38
2988,-489,1293,3826,-141,-20,42
2998,-499,1274,3797,-136,-26,48
3008,-466,1221,3820,-122,-25,33
3018,-471,1232,3819,-125,-17,40
3028,-488,1249,3823,-122,-33,30
3038,-473,1240,3891,-136,-31,26
3048,-497,1243,3871,-160,-37,22
3058,-517,1211,3899,-151,-27,1
3068,-502,1197,3903,-131,-22,-3
3078,-495,1211,3941,-122,-18,1
3088,-531,1232,3923,-127,-20,5
3098,-537,1242,3938,-138,-20,21
3108,-526,1247,3947,-152,-24,31
3118,-515,1220,3926,-148,-21,36
3128,-512,1166,3906,-139,-14,31
3138,-507,1140,3917,-102,-2,24
3148,-519,1142,3929,-80,13,2
3158,-541,1177,3922,-74,2,0
3168,-533,1174,3916,-69,12,-8
3179,-556,1197,3919,-46,12,-14
3189,-542,1206,3940,-42,5,-11
3199,-542,1221,3920,-72,-12,-1
3209,-555,1258,3922,-82,-22,-3
3219,-552,1262,3897,-93,-36,8
3229,-538,1238,3892,-116,-50,22
3239,-509,1165,3859,-122,-55,13
3249,-512,1151,3857,-79,-44,-1
3259,-508,1154,3881,-48,-46,-8
3269,-477,1159,3916,-34,-36,-20
3279,-494,1152,3925,-28,-25,-19
3289,-463,1151,3929,-38,-34,-11
3299,-489,1142,3924,-39,-24,-9
3309,-498,1151,3935,-35,-15,-6
3319,-504,1161,3897,-43,0,0
3329,-501,1166,3912,-43,-7,5
3339,-536,1174,3919,-42,-9,4
3349,-525,1184,3916,-51,-24,9
3359,-502,1188,3938,-57,-23,10
3369,-510,1136,3922,-58,-32,12
3380,-516,1146,3887,-43,-24,-7
3390,-506,1151,3880,-26,-34,2
3400,-480,1154,3897,-20,-31,7
3410,-486,1109,3913,-11,-21,3
3420,-470,1106,3914,-14,-26,-4
3430,-477,1116,3897,5,-18,-8
3440,-475,1134,3926,-4,-18,-9
3450,-497,1161,3905,-39,-26,1
3460,-497,1152,3883,-50,-26,7
3470,-500,1140,3902,-33,-25,-1
3480,-499,1143,3896,-26,-21,-11
3490,-509,1156,3918,-3,-25,-6
3500,-490,1154,3945,-17,-34,-1
3510,-476,1130,3936,-33,-38,7
3520,-502,1081,3902,-31,-25,-2
3530,-482,1113,3902,-16,-41,-8
3540,-481,1137,3891,-15,-43,-8
3550,-478,1135,3885,-26,-42,-3
3560,-470,1140,3909,-31,-39,3
3570,-464,1118,3899,-38,-35,11
3581,-450,1092,3925,-30,-31,7
3591,-456,1095,3910,-28,-25,5
3601,-453,1102,3907,-23,-18,4
3611,-477,1121,3913,-7,-4,-1
3621,-475,1161,3878,-1,-14,-1
3631,-446,1136,3900,-12,-19,-2
3641,-455,1135,3903,-47,-16,5
3651,-459,1104,3854,-40,-14,-9
3661,-469,1097,3869,17,-2,-21
3671,-474,1115,3924,17,-9,-20
3681,-481,1130,3919,-23,-6,-12
3691,-481,1152,3923,-40,-4,-4
3701,-490,1144,3909,-45,-13,4
3711,-493,1123,3890,-44,-12,-10
3721,-483,1099,3905,-39,-12,-9
3731,-476,1107,3905,-38,-12,-13
3741,-468,1141,3910,-32,-8,-15
3751,-477,1140,3918,-21,-17,-11
3761,-459,1131,3928,-27,-22,1
3771,-457,1132,3910,-17,-23,-10
3782,-429,1110,3928,-9,-22,-20
3792,-431,1110,3909,-8,-21,-25
3802,-453,1107,3891,2,-20,-29
3812,-446,1129,3905,17,-31,-24
3822,-437,1136,3887,31,-38,-30
3832,-410,1092,3907,33,-27,-44
3842,-436,1099,3884,39,-29,-54
3852,-421,1114,3875,36,-26,-47
3862,-432,1149,3880,21,-27,-42
3872,-431,1148,3889,5,-21,-22
3882,-444,1142,3900,-23,-34,-6
3892,-435,1144,3927,-45,-27,-3
3902,-467,1136,3895,-58,-31,6
3912,-437,1096,3925,-58,-33,3
3922,-452,1099,3913,-66,-34,-1
3932,-466,1101,3917,-67,-32,-11
3942,-481,1098,3935,-49,-34,-14
3952,-449,1089,3945,-26,-48,-16
3962,-444,1122,3957,-21,-33,-25
3972,-438,1113,3968,-28,-40,-23
3983,-428,1132,3968,-22,-34,-17
3993,-436,1146,3945,-32,-34,-10
4003,-454,1139,3953,-36,-32,-1
4013,-428,1139,3923,-35,-20,0
4023,-415,1134,3908,-34,-19,-3
4033,-434,1126,3912,-35,-11,-14
4043,-441,1133,3914,-34,-9,-14
4053,-442,1149,3898,-29,-2,-24
4063,-429,1144,3916,-30,-5,-11
4073,-452,1171,3905,-32,0,-10
4083,-447,1148,3916,-31,-14,-1
4093,-421,1127,3901,-50,-21,2
4103,-442,1105,3904,-44,-4,1
4113,-437,1097,3898,-27,-2,4
4123,-445,1088,3921,-19,1,-4
4133,-432,1095,3951,-28,-1,3
4143,-434,1096,3930,-34,0,2
4153,-448,1070,3934,-23,11,-15
4163,-443,1065,3936,0,4,-16
4173,-423,1067,3928,-10,5,-13
4184,-440,1098,3925,-19,2,-3
4194,-445,1136,3925,-32,0,5
4204,-468,1107,3892,-54,-6,7
4214,-441,1081,3880,-41,-13,-3
4224,-447,1089,3891,-37,-4,-16
4234,-437,1081,3891,-39,-10,-14
4244,-442,1109,3861,-49,-14,-3
4254,-425,1099,3897,-50,-19,-8
4264,-419,1108,3857,-62,-16,2
4274,-423,1075,3888,-61,-15,3
4284,-406,1049,3900,-46,-5,-5
4294,-432,1062,3895,-49,-8,1
4304,-421,1055,3894,-46,-7,-5
4314,-456,1067,3892,-53,4,-5
4324,-449,1092,3895,-72,-1,-2
4334,-444,1054,3891,-87,4,6
4344,-438,1040,3889,-84,14,9
4354,-441,1061,3879,-60,30,4
4364,-465,1077,3893,-31,23,-3
4374,-451,1084,3895,-26,22,-4
4385,-451,1065,3917,-54,26,2
4395,-441,1076,3914,-66,28,2
4405,-448,1070,3932,-58,17,7
4415,-446,1067,3940,-58,11,5
4425,-426,1050,3918,-63,5,-6
4435,-467,1039,3910,-59,12,-12
4445,-490,1064,3863,-41,0,-17
4455,-471,1032,3910,-27,-2,-14
4465,-444,1035,3912,-48,-14,-13
4475,-461,1039,3928,-47,-1,-15
4485,-457,1021,3931,-24,-5,-24
4495,-430,1046,3961,-25,-10,-20
4505,-435,1052,3956,-36,-3,-16
4515,-435,1048,3984,-43,-9,-13
4525,-446,1051,3980,-52,-22,-6
4535,-429,1036,3947,-69,-33,0
4545,-447,1000,3942,-76,-22,-3
4555,-456,1032,3932,-72,-31,-7
4565,-453,1043,3925,-52,-33,-12
4575,-421,1032,3925,-44,-35,-20
4586,-428,1042,3913,-50,-39,-23
4596,-405,1034,3930,-51,-45,-21
4606,-422,1033,3953,-55,-38,-17
4616,-428,1045,3943,-43,-35,-10
4626,-420,1036,3974,-33,-45,-13
4636,-421,1034,3971,-50,-53,-11
4646,-423,1029,3936,-56,-51,-19
4656,-455,1024,3921,-49,-45,-16
4666,-436,1007,3941,-45,-49,-11
4676,-427,988,3954,-45,-55,-13
4686,-421,966,3949,-43,-47,-28
4696,-425,974,3928,-36,-49,-32
4706,-430,993,3934,-37,-50,-36
4716,-442,986,3919,-51,-47,-30
4726,-435,982,3921,-11,-41,-33
4736,-409,981,3929,1,-36,-44
4746,-430,1008,3940,-28,-33,-37
4756,-434,1008,3927,-45,-45,-31
4766,-444,998,3925,-48,-47,-36
4776,-447,1009,3908,-49,-54,-28
4787,-439,978,3901,-60,-60,-25
4797,-417,986,3924,-49,-68,-31
4807,-413,979,3930,-64,-73,-34
4817,-405,964,3946,-81,-77,-34
4827,-399,978,3919,-90,-74,-28
4837,-404,968,3929,-105,-81,-29
4847,-394,969,3936,-119,-75,-21
4857,-384,960,3940,-103,-69,-31
4867,-377,955,3973,-97,-75,-27
4877,-380,965,3963,-105,-74,-28
4887,-397,976,3975,-91,-79,-28
4897,-378,972,3999,-91,-85,-25
4907,-397,1003,4016,-92,-79,-22
4917,-409,1008,4006,-95,-82,-20
4927,-390,994,3989,-85,-79,-21
4937,-398,996,3990,-67,-82,-20
4947,-404,976,4012,-55,-92,-20
4957,-400,978,3986,-56,-95,-18
4967,-382,994,4018,-47,-93,-18
4977,-378,995,4010,-35,-101,-20
4993,-353,974,4009,-27,-103,-20
5003,-343,940,4005,-8,-103,-17
5013,-307,913,3987,5,-89,-24
5023,-358,910,4003,17,-78,-29
5033,-304,859,3981,13,-69,-5
5043,-329,940,4000,19,-67,-22
5053,-321,974,3976,-16,-81,-7
5063,-315,952,3973,-38,-80,-7
5073,-311,930,3962,-55,-87,-7
5083,-325,904,3955,-53,-89,-17
5093,-311,907,3956,-49,-83,-18
5103,-305,944,3960,-36,-80,-21
5113,-281,965,3953,-43,-90,-13
5123,-289,966,3943,-52,-98,-2
5133,-272,978,3962,-71,-110,5
5143,-302,972,3960,-74,-119,-1
5153,-264,958,3962,-63,-120,0
5163,-293,949,3949,-42,-119,-2
5173,-255,926,3942,-32,-126,-4
5183,-240,920,3970,-18,-118,-27
5193,-263,956,3977,-12,-108,-27
5203,-252,991,3950,-23,-125,-21
5213,-252,971,3968,-51,-134,-22
5223,-221,930,3944,-69,-140,-22
5233,-221,891,3913,-59,-122,-25
5243,-247,904,3953,-16,-117,-37
5253,-242,904,3960,-6,-122,-45
5263,-255,857,3976,-18,-131,-52
5273,-252,883,3987,-6,-151,-80
5283,-261,862,3991,0,-163,-103
5293,-216,794,4029,-9,-187,-107
5303,-188,786,4016,-5,-190,-123
5313,-115,768,4035,-30,-210,-142
5323,28,848,4022,-37,-202,-177
5333,152,885,4006,-17,-30,-123
5343,3759,1003,3560,273,-59,1131
5353,61,906,4111,152,852,1147
5363,-1095,583,3850,232,965,1109
5373,-1519,775,3750,421,585,788
5383,-1767,1172,3722,731,141,247
5393,-1249,1511,4011,800,-354,-66
5403,-851,2253,4001,-362,-1168,-85
5413,34,1341,3475,175,-974,-92
5423,637,173,4233,566,-582,-473
5433,909,328,4265,105,-456,-679
5443,819,1125,3824,249,83,-51
5453,26,1712,4270,329,-24,-334
5463,227,2141,4287,-119,-13,-910
5473,184,2067,4021,-111,229,-357
5483,-886,1554,4109,-99,110,-51
5493,-815,1287,3816,-230,-190,-387
5503,-310,1140,3685,-42,-366,-441
5513,74,1028,3793,207,-378,-392
5523,290,1085,3986,241,-294,-373
5533,286,1259,4055,160,-158,-350
5543,93,1298,4021,120,-66,-338
5553,-113,1194,4063,32,-22,-280
5563,-258,1054,4074,-81,-92,-274
5573,-200,955,4060,-133,-141,-330
5583,-84,946,4061,-160,-172,-342
5593,37,984,4036,-161,-146,-354
5603,-40,936,4010,-105,-59,-268
5613,-140,834,4007,-89,-45,-256
5623,-190,856,3990,-101,-39,-284
5633,-182,1006,3962,-113,-64,-273
5643,-147,1133,3928,-156,-66,-265
5653,-120,1280,3886,-232,-57,-260
5663,-121,1299,3882,-317,-29,-243
5673,-150,1195,3829,-417,-13,-227
5683,-189,1024,3860,-485,12,-237
5693,-202,869,3889,-534,16,-239
5703,-194,773,3905,-543,25,-237
5713,-167,701,3909,-476,51,-247
5723,-200,669,3931,-421,89,-247
5733,-272,698,3942,-359,111,-257
5743,-325,734,3991,-323,130,-274
5753,-357,779,3989,-316,127,-283
5763,-507,356,3582,-170,158,-120
5773,-829,-56,3705,-74,-107,-118
5783,-562,415,3886,-233,-209,-333
5793,-358,931,3878,-86,-179,-172
5803,-423,886,3975,-147,-314,-183
5813,-29,767,4062,-347,-285,-199
5823,-134,636,4146,-370,-233,-25
5833,-135,546,4262,-410,-297,-84
5843,542,590,4276,-505,-153,-343
5853,338,570,4098,-265,30,-22
5863,62,243,4425,-266,-144,-53
5873,140,577,4349,-402,114,-115
5883,30,821,4324,-265,-13,-91
5893,-98,779,4243,-297,-48,-95
5903,41,753,4219,-329,49,-190
5913,-86,709,4129,-250,59,-79
5923,-235,599,4055,-183,8,-63
5933,-156,566,3979,-124,-62,-147
5943,-190,435,3830,61,-60,-50
5953,-21,424,3995,5,-180,-188
5963,75,810,3834,7,-39,-184
5973,-10,920,3968,118,-42,-147
5983,82,907,4032,-8,-6,-209
5998,-32,782,4028,6,40,-151
6008,-92,614,4090,-27,19,-107
6018,-27,741,4150,-183,-60,-269
6028,68,1112,4026,-219,77,-227
6038,126,1380,4385,-357,55,-367
6048,163,1112,3615,-268,427,-179
6058,-448,71,4083,-101,88,-128
6068,-383,-111,3833,-350,5,-363
6078,214,97,3815,-57,120,-446
6088,-75,306,3711,114,160,-342
6098,-176,446,3669,117,176,-437
6108,-190,492,3728,90,199,-499
6118,-290,461,3808,0,212,-416
6128,-330,503,3894,-115,130,-371
6138,-221,613,3948,-161,48,-364
6148,-41,717,4083,-214,17,-331
6158,58,802,4130,-311,14,-241
6168,119,825,4193,-459,-3,-278
6178,46,674,4169,-465,174,-118
6188,-154,393,4150,-522,142,-51
6198,-339,284,4080,-607,123,3
6208,-389,367,4109,-627,61,10
6218,-365,440,4072,-607,30,22
6228,-321,458,4098,-587,-9,-2
6238,-205,514,4142,-584,-10,-45
6248,-217,411,3850,-426,74,37
6258,-396,-138,3859,-152,-70,53
6268,-245,-299,3809,-135,-79,73
6278,-582,234,3620,-8,-180,65
6288,-505,641,3585,119,-268,64
6298,-611,617,3485,128,-352,189
6308,-645,304,3420,87,-552,215
6318,-304,85,3413,-26,-660,48
6328,-183,214,3369,8,-647,44
6338,-136,380,3587,111,-738,-131
6348,238,404,3606,207,-540,-159
6358,344,721,4246,27,-596,-273
6368,213,1423,3894,-46,-355,-275
6378,231,1803,4939,-420,-809,-954
6388,2205,2424,4567,-1322,-176,-1272
6398,1615,2112,4494,-1214,587,-605
6408,371,846,4646,-1114,784,-169
6418,-228,191,4535,-1400,647,-343
6428,-637,-9,4267,-1172,473,-563
6438,-384,40,4249,-949,229,-731
6448,-3,227,4132,-888,110,-716
6458,207,208,3994,-770,129,-734
6468,239,44,3953,-686,215,-757
6478,121,-156,3932,-598,311,-770
6488,-29,-228,3927,-512,310,-763
6498,-136,-208,3943,-443,245,-780
6508,-157,-187,4023,-390,180,-788
6518,-140,-197,4142,-383,120,-777
6528,-111,-249,4202,-397,85,-779
6538,-96,-332,4188,-393,66,-769
6548,-106,-412,4210,-360,55,-737
6558,-138,-478,4175,-336,41,-707
6568,-156,-505,4114,-281,25,-691
6578,-150,-569,4139,-230,21,-668
6588,-136,-572,4114,-215,15,-631
6598,-144,-560,4127,-189,33,-600
6608,-173,-539,4150,-169,51,-561
6618,-200,-528,4173,-166,63,-517
6628,-234,-497,4189,-182,69,-478
6638,-255,-455,4184,-220,70,-446
6648,-272,-441,4197,-262,78,-409
6658,-278,-481,4162,-281,76,-385
6668,-292,-578,4151,-281,74,-359
6678,-249,-635,4102,-261,80,-341
6688,-233,-673,4087,-221,98,-314
6698,-233,-647,4076,-174,125,-289
6708,-277,-567,4051,-150,154,-272
6718,-314,-493,4064,-136,168,-252
6728,-346,-436,4062,-153,161,-241
6738,-351,-408,4075,-176,148,-234
6748,-329,-400,4067,-194,134,-224
6758,-281,-387,4043,-203,127,-217
6768,-256,-384,4023,-200,141,-213
6778,-233,-368,4043,-208,145,-211
6788,-250,-370,4021,-197,177,-219
6798,-261,-335,3998,-200,191,-219
6808,-301,-298,4005,-203,205,-225
6818,-328,-262,4064,-216,211,-220
6828,-348,-269,4080,-238,207,-230
6838,-337,-303,4067,-249,198,-245
6848,-350,-334,4067,-258,193,-258
6858,-324,-392,4063,-247,198,-262
6868,-319,-444,4062,-231,206,-281
6878,-326,-472,4037,-209,211,-297
6888,-338,-498,4007,-191,226,-297
6898,-384,-530,4016,-172,228,-296
6908,-409,-553,4001,-164,227,-317
6918,-407,-597,4003,-152,219,-317
6928,-418,-630,3964,-146,201,-305
6938,-389,-641,3953,-137,194,-302
6948,-390,-674,3961,-132,175,-291
6958,-376,-693,3956,-125,168,-279
6968,-376,-722,3961,-111,157,-267
6978,-376,-741,3976,-96,144,-254
6988,-362,-756,3964,-83,131,-240
6998,-331,-784,3963,-74,123,-239
7008,-308,-763,3937,-71,127,-238
7018,-327,-726,3949,-67,128,-231
7028,-349,-703,3951,-77,134,-220
7038,-348,-680,4004,-95,114,-224
7048,-327,-695,4019,-110,101,-227
7058,-285,-727,4003,-117,101,-220
7068,-281,-755,4009,-105,113,-206
7078,-280,-764,4005,-91,129,-203
7088,-323,-711,3985,-89,142,-182
7098,-386,-650,3969,-94,152,-169
7108,-446,-601,3958,-117,152,-161
7118,-490,-551,3934,-138,138,-154
7128,-510,-578,3938,-165,120,-144
7138,-500,-604,3925,-179,101,-139
7148,-487,-638,3905,-169,90,-134
7158,-473,-683,3930,-141,75,-129
7168,-460,-724,3941,-111,63,-123
7178,-434,-748,3944,-83,57,-116
7188,-427,-716,3953,-63,62,-120
7199,-417,-673,3915,-52,57,-115
7209,-420,-635,3928,-49,65,-108
7219,-428,-615,3899,-66,62,-116
7229,-454,-592,3853,-87,66,-109
7239,-472,-594,3849,-108,69,-104
7249,-503,-614,3824,-139,62,-104
7259,-509,-649,3856,-159,53,-110
7269,-523,-696,3903,-177,31,-114
7279,-515,-782,3913,-167,17,-118
7289,-516,-856,3907,-142,-6,-124
7299,-476,-920,3920,-83,-13,-132
7309,-465,-953,3921,-25,-15,-130
7319,-443,-932,3950,30,-23,-139
7329,-415,-884,4006,59,-30,-143
7339,-382,-811,4010,68,-30,-140
7349,-364,-772,3999,68,-27,-150
7359,-371,-777,4009,53,-19,-152
7369,-352,-805,4015,45,-9,-138
7379,-342,-809,4014,34,-2,-136
7389,-335,-823,4069,30,7,-136
7400,-328,-784,4067,14,27,-129
7410,-363,-757,4078,-14,41,-118
7420,-406,-738,4074,-38,58,-111
7430,-445,-708,4015,-63,68,-93
7440,-482,-715,3980,-69,68,-82
7450,-518,-719,3955,-70,67,-73
7460,-508,-737,3935,-90,55,-59
7470,-510,-750,3938,-87,56,-59
7480,-492,-756,3923,-97,54,-45
7490,-481,-756,3904,-102,55,-41
7500,-489,-771,3917,-92,56,-32
7510,-480,-791,3897,-92,56,-26
7520,-486,-766,3880,-86,52,-20
7530,-492,-759,3888,-86,45,-17
7540,-472,-765,3880,-93,24,-13
7550,-479,-733,3853,-100,14,-10
7560,-467,-736,3860,-102,6,-4
7570,-456,-752,3866,-106,-6,3
7580,-463,-787,3893,-101,-19,-4
7590,-454,-824,3857,-96,-30,-5
7601,-449,-807,3885,-90,-42,7
7611,-460,-819,3909,-69,-53,7
7621,-442,-827,3936,-64,-72,-4
7631,-405,-829,3950,-55,-83,-7
7641,-384,-836,3953,-37,-84,-14
7651,-372,-818,3980,-35,-72,-13
7661,-385,-779,4007,-44,-57,-19
7671,-417,-785,4028,-69,-44,-21
7681,-451,-798,3997,-106,-39,-32
7691,-440,-831,3977,-120,-35,-44
7701,-423,-863,3967,-142,-31,-51
7711,-386,-874,3955,-150,-15,-47
7721,-399,-859,3953,-166,12,-35
7731,-436,-857,3960,-176,38,-20
7741,-486,-856,3938,-203,62,2
7751,-567,-848,3929,-217,70,16
7761,-643,-895,3947,-228,54,23
7771,-659,-933,3966,-221,13,27
7781,-608,-999,3970,-184,-23,22
7791,-511,-1003,3970,-136,-50,21
7802,-440,-1002,3930,-85,-48,16
7812,-393,-943,3932,-25,-35,15
7822,-350,-890,3947,8,-25,3
7832,-308,-841,3933,6,-11,-8
7842,-293,-793,3962,5,-3,-11
7852,-236,-773,3962,-7,16,-17
7862,-235,-810,3911,7,19,-22
7872,-232,-910,3958,79,26,-20
7882,-251,-1065,3949,200,23,-17
7892,-246,-1199,3972,398,30,-23
7902,-306,-1302,4029,661,37,-33
7912,-357,-1331,4045,933,46,-55
7922,-395,-1311,4129,1245,27,-63
7932,-384,-1214,4243,1480,28,-61
7942,-331,-1111,4296,1704,27,-28
7952,-316,-1057,4490,1870,36,20
7962,-286,-1012,4649,1916,43,70
7972,-236,-915,4679,1916,90,170
7982,-235,-745,4641,1845,164,308
7992,-350,-475,4638,1712,248,445
8003,-508,-236,4573,1550,332,569
8013,-696,-101,4503,1376,399,679
8023,-901,-112,4480,1220,437,790
8033,-1051,-141,4395,1071,433,887
8043,-1135,-141,4319,1006,415,959
8053,-1198,-103,4321,1010,370,1017
8063,-1174,19,4157,1014,337,1048
8073,-1074,143,4049,1075,239,1045
8083,-854,266,4114,1152,167,1096
8093,-661,448,4085,1157,100,1187
8103,-634,586,4047,1151,132,1253
8113,-806,618,3916,1146,155,1299
8123,-920,728,3869,1136,91,1302
8133,-941,909,3813,1093,7,1256
8143,-880,1028,3812,1049,-46,1176
8153,-785,969,3779,949,-86,1114
8163,-641,867,3695,913,-127,1086
8173,-532,809,3646,929,-132,1036
8183,-480,852,3653,967,-87,987
8193,-491,964,3661,927,-65,938
8204,-500,1071,3642,880,-60,883
8214,-520,1062,3661,845,-70,820
8224,-488,1007,3661,804,-83,754
8234,-460,966,3681,779,-94,697
8244,-419,961,3674,761,-96,655
8254,-350,983,3660,762,-92,611
8264,-296,1018,3682,708,-79,575
8274,-275,1066,3595,674,-44,562
8284,-281,1040,3612,663,8,559
8294,-319,974,3653,624,30,558
8304,-359,948,3791,560,25,556
8314,-365,940,3845,519,1,574
8324,-329,983,3894,489,-16,577
8334,-307,980,3865,527,-17,583
8344,-251,974,3868,548,-5,607
8354,-268,998,3845,580,10,644
8364,-310,1100,3869,607,30,668
8374,-374,1210,3884,606,20,692
8384,-416,1292,3920,591,7,704
8394,-422,1358,3929,570,-28,726
8405,-393,1383,3926,583,-47,738
8415,-330,1433,3920,584,-65,750
8425,-286,1496,3867,586,-75,754
8435,-264,1607,3815,580,-59,767
8445,-265,1689,3770,548,-63,767
8455,-248,1754,3742,507,-65,761
8465,-220,1800,3719,445,-64,750
8475,-191,1834,3681,357,-69,733
8485,-179,1871,3659,298,-61,706
8495,-197,1881,3617,244,-61,677
8505,-192,1840,3537,236,-55,640
8515,-167,1799,3528,252,-49,612
8525,-151,1774,3525,262,-63,573
8535,-135,1787,3512,293,-48,518
8545,-148,1847,3546,283,-39,485
8555,-150,1974,3509,244,-41,436
8565,-184,2015,3498,212,-36,378
8575,-169,1983,3510,170,-45,326
8585,-134,1914,3483,138,-54,284
8595,-89,1856,3508,118,-57,248
8606,-49,1829,3521,108,-50,214
8616,-45,1841,3515,105,-35,186
8626,-47,1826,3544,98,-12,172
8636,-52,1813,3557,92,3,148
8646,-60,1800,3602,78,8,120
8656,-40,1769,3629,49,11,105
8666,-8,1790,3600,22,14,87
8676,20,1794,3606,-4,31,77
8686,38,1825,3572,-23,53,63
8696,3,1805,3599,-42,70,63
8706,-2,1755,3606,-54,87,52
8716,-28,1738,3646,-82,87,48
8726,-57,1751,3610,-97,85,45
8736,-51,1774,3661,-105,89,48
8746,-40,1838,3666,-160,88,47
8756,-33,1894,3628,-221,83,52
8766,-62,1953,3682,-301,69,59
8776,-71,1869,3603,-298,64,56
8786,-77,1687,3622,-249,80,41
8796,-104,1567,3615,-206,64,51
8807,-108,1559,3674,-104,78,39
8817,-135,1662,3716,-50,64,26
8827,-165,1790,3707,-23,47,12
8837,-188,1883,3703,-21,33,0
8847,-189,1883,3702,-54,12,-11
8857,-165,1896,3673,-87,-2,-23
8867,-152,1844,3670,-111,-10,-33
8877,-140,1792,3673,-124,-7,-27
8887,-134,1736,3633,-117,-12,-19
8897,-141,1684,3632,-83,1,-21
8907,-156,1632,3671,-63,2,-20
8917,-169,1663,3678,-47,-9,-22
8927,-154,1709,3742,-41,-13,-23
8937,-156,1746,3754,-74,-19,-24
8947,-139,1779,3751,-128,-21,-20
8957,-144,1778,3765,-192,-26,-19
8967,-119,1777,3788,-270,-37,-15
8977,-94,1740,3790,-339,-38,-15
8987,-77,1693,3792,-379,-33,-5
8997,-109,1564,3750,-347,-35,5
9008,-128,1389,3816,-248,-7,-1
9018,-125,1308,3810,-181,-17,-3
9028,-125,1369,3812,-76,-18,-17
9038,-114,1484,3828,28,-5,-22
9048,-117,1620,3858,45,-4,-25
9058,-124,1749,3853,0,0,-22
9068,-169,1805,3828,-68,-7,-13
9078,-155,1799,3790,-138,-15,-6
9088,-151,1751,3782,-213,-8,8
9098,-158,1693,3788,-268,-16,26
9108,-146,1577,3727,-229,-27,36
9119,-153,1422,3749,-149,-4,33
9129,-142,1376,3789,-87,-14,47
9139,-130,1471,3794,-13,-9,37
9149,-157,1645,3792,17,-17,35
9159,-189,1771,3789,20,-25,28
9169,-200,1789,3806,-13,-32,19
9179,-171,1745,3764,-58,-51,4
9189,-130,1669,3720,-52,-45,-3
9199,-110,1590,3741,-43,-38,-5
9209,-99,1567,3772,-27,-30,-14
9220,-113,1598,3784,-10,-21,-23
9230,-138,1643,3803,-10,-24,-30
9240,-135,1648,3818,-22,-22,-37
9250,-133,1632,3825,-53,-25,-46
9260,-139,1631,3796,-61,-29,-53
9270,-131,1609,3791,-71,-17,-52
9280,-141,1606,3756,-100,-17,-61
9290,-151,1575,3781,-105,-22,-62
9300,-144,1530,3787,-99,-22,-65
9310,-123,1485,3790,-78,-18,-65
9321,-131,1483,3825,-76,-11,-57
9331,-122,1508,3840,-80,-18,-59
9341,-126,1552,3835,-94,-20,-57
9351,-134,1556,3849,-134,-22,-50
9361,-119,1577,3795,-173,-32,-49
9371,-128,1570,3786,-201,-18,-42
9381,-134,1506,3808,-228,-31,-31
9391,-127,1467,3783,-203,-29,-41
9401,-101,1404,3813,-171,-29,-55
9411,-89,1359,3796,-89,-31,-54
9422,-65,1368,3825,-25,-8,-69
9432,-69,1429,3842,19,4,-79
9442,-108,1540,3858,36,14,-91
9452,-141,1614,3837,-1,1,-100
9462,-138,1684,3845,-49,-7,-111
9472,-145,1661,3823,-83,-16,-120
9482,-130,1550,3806,-101,-21,-131
9492,-106,1444,3771,-72,-23,-138
9502,-89,1380,3799,-11,-10,-148
9512,-73,1417,3819,28,-4,-154
9523,-100,1534,3843,43,4,-163
9533,-109,1657,3861,28,11,-166
9543,-130,1723,3882,-24,0,-180
9553,-112,1727,3895,-78,-9,-193
9563,-80,1679,3900,-124,-8,-211
9573,-59,1631,3940,-157,-1,-220
9583,-65,1661,3990,-190,12,-227
9593,-61,1708,4022,-192,25,-243
9603,-88,1686,4064,-150,41,-259
9613,-109,1644,4115,-98,55,-293
9624,-81,1690,4133,-53,68,-330
9634,-61,1790,4120,5,96,-373
9644,-81,1880,4139,69,125,-410
9654,-102,1972,4225,98,137,-467
9664,-103,2160,4331,105,129,-531
9674,-12,2420,4608,122,105,-621
9684,131,2864,4868,122,96,-754
9694,356,3482,5113,22,157,-950
9704,565,4308,5213,-302,270,-1212
9714,761,5164,4991,-726,369,-1608
9725,1037,5603,4777,-1218,550,-2159
9735,1408,5398,4345,-1778,703,-2694
9745,1808,4686,3934,-2253,893,-3190
9755,2199,3846,3457,-2477,1235,-3635
9765,2379,2839,3026,-2306,1710,-4011
9775,2308,1852,2782,-1974,2179,-4336
9785,2103,1161,2565,-1680,2590,-4621
9795,1779,892,2280,-1447,2939,-4845
9805,1375,983,1882,-1317,3214,-5062
9815,1079,1251,1590,-1269,3399,-5263
9826,833,1423,1422,-1363,3551,-5445
9836,628,1465,1200,-1571,3545,-5550
9846,515,1301,1094,-1848,3488,-5628
9856,458,940,952,-2110,3395,-5697
9866,417,341,1098,-2231,3213,-5756
9876,492,-651,1820,-2140,2906,-5783
9886,849,-1674,2182,-2204,2683,-5760
9896,1066,-2636,2346,-2101,2554,-5657
9906,892,-3534,2594,-1688,2494,-5472
9916,305,-4146,2589,-1265,2497,-5273
9927,-517,-4341,2236,-767,2431,-5034
9937,-1366,-4184,2195,-228,2252,-4762
9947,-1942,-3622,2110,177,2012,-4420
9957,-2216,-2988,2086,549,1718,-4001
9967,-2289,-2549,2382,856,1360,-3563
9977,-2016,-2344,2787,980,1000,-3228
9987,-1525,-2471,3105,1026,688,-2935
9997,-1217,-2737,3248,847,489,-2655
10007,-1211,-2988,3107,689,273,-2446
10017,-1308,-3101,2915,672,92,-2272
10027,-1317,-3186,2781,797,-26,-2141
10037,-1124,-3270,2926,860,-102,-2036
10047,-877,-3233,2821,795,-145,-1941
10057,-757,-3295,2704,873,-186,-1850
10067,-868,-3549,3022,833,-308,-1750
10077,-1069,-3923,3318,689,-356,-1701
10087,-1387,-4168,3519,237,-339,-1684
10097,-1429,-4225,3265,-236,-363,-1757
10107,-1285,-4364,2915,-468,-382,-1768
10117,-1079,-4421,2554,-615,-329,-1616
10127,-1078,-4193,2244,-712,-317,-1419
10137,-1259,-3934,2062,-663,-315,-1334
10147,-1442,-3831,2228,-630,-392,-1248
10157,-1469,-3929,2639,-485,-573,-1132
10167,-1150,-4059,2807,-261,-674,-996
10177,-785,-4186,3134,-102,-728,-880
10187,-656,-4256,3290,-264,-742,-490
10197,-1253,-4300,3231,-578,-734,53
10207,-1376,-4412,3288,-634,-769,128
10217,-516,-4820,3877,-607,-753,77
10227,-253,-5154,3368,-484,-564,74
10237,-178,-4914,2596,139,-292,41
10247,-523,-3988,2546,749,-15,173
10257,-800,-2963,2551,928,81,284
10267,-925,-2282,2477,920,131,335
10277,-971,-1937,2336,754,102,298
10287,-941,-1779,2203,498,-41,196
10297,-768,-1812,2183,293,-182,104
10307,-592,-2022,2687,63,-417,118
10317,-492,-2265,3016,-39,-535,253
10327,-385,-2425,3462,17,-640,404
10337,-432,-2539,3639,208,-643,539
10347,-483,-2746,3703,350,-672,637
10357,-464,-3042,3081,376,-604,733
10367,-513,-3475,2629,522,-500,655
10377,-534,-3679,2643,647,-399,492
10387,-587,-3232,2901,700,-343,450
10397,-593,-2314,3343,797,-318,512
10407,-784,-1432,3635,714,-361,595
10417,-954,-1166,3777,391,-384,557
10427,-1223,-1678,3449,143,-305,388
10437,-1294,-2575,3157,31,-232,178
10447,-1243,-3178,2897,143,-213,-4
10457,-1059,-3093,2877,362,-136,-137
10467,-809,-2468,2954,421,-50,-179
10477,-759,-1969,2742,346,112,-190
10487,-977,-1839,2439,238,159,-249
10497,-1132,-2056,2398,166,174,-304
10507,-1134,-2245,2657,100,97,-330
10517,-911,-2125,2731,108,46,-332
10527,-691,-1841,3018,141,36,-295
10537,-664,-1862,3793,103,6,-236
10547,-672,-1981,3929,-32,37,-210
10557,-660,-2192,3677,-66,60,-250
10567,-677,-2255,3445,-87,117,-241
10577,-723,-2112,3226,-51,156,-220
10587,-769,-2053,3070,-121,160,-172
10597,-887,-2350,2751,-165,156,-163
10607,-982,-2684,2722,-19,154,-199
10617,-871,-2813,2793,116,112,-267
10627,-644,-2619,3046,289,121,-260
10637,-498,-2311,3196,433,201,-247
10647,-550,-2105,3338,551,270,-257
10657,-703,-2009,3513,583,281,-268
10667,-849,-1908,3823,510,217,-252
10677,-897,-1765,3866,362,85,-217
10687,-826,-1633,3665,243,-18,-178
10697,-747,-1575,3531,168,-75,-142
10707,-689,-1665,3483,136,-116,-104
10717,-601,-1823,3485,33,-151,-67
10727,-493,-1975,3469,-104,-108,-50
10737,-468,-2207,3362,-137,-68,-2
10747,-460,-2437,3249,-151,-44,24
10757,-468,-2498,3121,-54,16,31
10767,-528,-2443,3037,71,65,45
10777,-657,-2365,3282,162,69,67
10787,-733,-2268,3521,128,49,80
10797,-804,-2179,3500,111,-3,83
10807,-829,-2136,3436,117,-56,79
10817,-809,-2029,3398,103,-79,94
10827,-818,-1913,3422,84,-92,87
10837,-815,-1823,3465,46,-83,73
10847,-835,-1835,3489,-15,-64,65
10857,-827,-1950,3390,-80,-67,59
10867,-771,-2109,3295,-81,-60,23
10877,-697,-2240,3282,-63,-37,-1
10887,-662,-2327,3192,-51,-11,-12
10897,-637,-2316,3196,12,15,-25
10907,-650,-2201,3316,26,36,-20
10917,-742,-2085,3377,30,31,-18
10927,-783,-2060,3415,14,1,-4
10937,-754,-2101,3339,-9,-32,9
10947,-689,-2084,3349,-16,-41,10
10957,-639,-2043,3352,-34,-46,32
10967,-626,-1985,3248,-21,-32,38
10977,-661,-2068,3194,13,-9,19
10987,-674,-2174,3244,5,19,-1
10997,-685,-2252,3298,6,33,-3
11007,-675,-2232,3342,8,31,6
11017,-732,-2137,3369,16,41,4
11027,-773,-2061,3427,-9,32,11
11038,-816,-2055,3324,-29,20,9
11048,-787,-2078,3342,-53,0,-4
11058,-740,-2081,3334,-82,-15,3
11068,-720,-2112,3269,-74,-11,-1
11078,-725,-2155,3310,-63,-2,-3
11088,-759,-2169,3286,-58,1,6
11098,-741,-2158,3322,-49,0,9
11108,-693,-2070,3333,-55,10,14
11118,-696,-2042,3375,-53,10,13
11128,-732,-2078,3284,-85,-3,5
11138,-770,-2146,3317,-67,-2,-13
11148,-756,-2191,3286,-94,-17,-39
11158,-696,-2169,3306,-101,-32,-39
11168,-665,-2217,3334,-105,-17,-24
11178,-691,-2212,3283,-102,-15,-19
11188,-722,-2160,3307,-96,-18,-10
11198,-749,-2097,3335,-113,-25,16
11208,-734,-2054,3338,-137,-26,25
11218,-699,-2081,3278,-139,-33,14
11228,-666,-2166,3254,-116,-28,16
11238,-690,-2244,3213,-82,-26,19
11248,-739,-2253,3222,-62,-25,33
11258,-751,-2239,3225,-22,-25,25
11268,-743,-2215,3297,-20,-22,25
11278,-740,-2151,3279,-42,-27,32
11289,-723,-2090,3337,-49,-23,33
11299,-707,-2069,3276,-67,-32,56
11309,-737,-2114,3183,-53,-36,38
11319,-754,-2319,3159,-44,-51,2
11329,-727,-2502,3267,-30,-42,-15
11339,-719,-2471,3284,2,-46,-25
11349,-729,-2272,3452,16,-46,-45
11359,-764,-2074,3441,-54,-24,-58
11369,-772,-1910,3324,-109,-24,-70
11379,-737,-1907,3264,-173,-19,-58
11389,-673,-2025,3162,-240,-24,-46
11399,-596,-2197,3115,-214,-6,-23
11409,-562,-2320,3156,-205,-1,16
11419,-530,-2248,3145,-158,11,52
11429,-577,-2211,3211,-110,47,83
11439,-673,-2216,3230,-116,69,97
11449,-730,-2259,3271,-145,85,79
11459,-757,-2244,3177,-126,69,53
11469,-733,-2298,3245,-37,71,44
11479,-722,-2282,3354,-42,71,57
11489,-709,-2198,3319,-49,56,63
11499,-727,-2192,3327,-34,38,99
11509,-800,-2230,3223,-66,10,117
11519,-810,-2289,3205,-53,-18,99
11529,-776,-2324,3232,-74,-32,90
11540,-763,-2279,3233,-80,-36,56
11550,-771,-2192,3226,-79,-26,36
11560,-775,-2169,3205,-76,-15,25
11570,-805,-2234,3163,-80,-12,26
11580,-802,-2319,3161,-59,-1,5
11590,-730,-2329,3178,-66,-2,-8
11600,-693,-2254,3144,-54,18,-3
11610,-720,-2258,3115,-23,36,1
11620,-748,-2314,3140,12,50,0
11630,-782,-2393,3190,30,54,-8
11640,-753,-2367,3194,46,53,-19
11650,-699,-2266,3236,59,55,-24
11660,-733,-2166,3274,42,58,-26
11670,-773,-2149,3284,4,60,-28
11680,-793,-2195,3218,-27,53,-34
11690,-762,-2261,3158,-37,53,-21
11700,-736,-2268,3258,-30,54,-11
11710,-711,-2178,3228,-77,61,-14
11720,-712,-2117,3219,-77,65,-6
11730,-745,-2203,3211,-68,58,15
11740,-752,-2281,3237,-58,59,24
11750,-726,-2271,3271,-69,46,32
11760,-755,-2246,3166,-43,46,44
11770,-808,-2272,3191,-39,52,39
11780,-837,-2341,3168,-57,48,17
11791,-849,-2373,3150,-33,40,10
11801,-825,-2383,3162,5,32,1
11811,-791,-2324,3228,15,40,-12
11821,-777,-2263,3246,8,53,-12
11831,-787,-2183,3247,-7,55,-14
11841,-817,-2141,3246,-29,46,-12
11851,-801,-2132,3252,-41,28,-11
11861,-771,-2147,3218,-80,41,0
11871,-750,-2179,3133,-77,50,12
11881,-743,-2265,3106,-51,68,29
11891,-749,-2323,3142,-16,75,51
11901,-762,-2383,3206,17,70,75
11911,-775,-2411,3250,27,58,84
11921,-776,-2348,3343,13,36,87
11931,-808,-2168,3375,-21,37,91
11941,-853,-2012,3327,-92,30,91
11951,-915,-2049,3183,-148,33,81
11961,-957,-2228,3075,-137,-2,76
11971,-880,-2427,3087,-113,-16,83
11981,-801,-2465,3019,-46,-12,86
11991,-792,-2474,3093,35,-12,85
12001,-836,-2432,3220,62,-16,87
12011,-892,-2373,3222,61,-21,77
12021,-935,-2271,3253,53,-20,33
12031,-950,-2211,3235,21,-24,-1
12042,-911,-2222,3159,-9,-34,-30
12052,-891,-2220,3142,-18,-54,-59
12062,-815,-2262,3114,7,-58,-71
12072,-802,-2315,3131,20,-51,-77
12082,-799,-2308,3182,36,-44,-90
12092,-803,-2256,3182,35,-41,-86
12102,-818,-2224,3217,47,-52,-82
12112,-821,-2230,3302,22,-62,-81
12122,-800,-2209,3265,-26,-75,-62
12132,-784,-2217,3208,-16,-70,-62
12142,-741,-2191,3216,-59,-69,-42
12152,-718,-2137,3193,-88,-51,-35
12162,-722,-2198,3146,-97,-35,-12
12172,-786,-2296,3119,-75,-28,-4
12182,-819,-2433,3089,-25,-32,-8
12192,-778,-2477,3105,13,-30,-2
12202,-752,-2424,3122,27,-15,-10
12212,-784,-2304,3153,50,-2,-17
12222,-846,-2258,3241,73,-9,-17
12232,-887,-2248,3272,47,-37,-21
12243,-864,-2203,3263,26,-61,-43
12253,-796,-2195,3238,3,-71,-49
12263,-786,-2229,3171,-16,-79,-55
12273,-788,-2266,3180,-3,-69,-56
12283,-778,-2315,3164,9,-61,-56
12293,-725,-2285,3153,16,-59,-35
12303,-711,-2256,3180,22,-44,-36
12313,-735,-2263,3172,34,-25,-19
12323,-778,-2274,3199,44,-26,-16
12333,-758,-2274,3257,26,-10,-16
12343,-727,-2253,3252,-15,-10,-20
12353,-710,-2204,3250,-33,-5,-23
12363,-722,-2164,3266,-69,-6,-19
12373,-745,-2163,3183,-61,-15,-24
12383,-784,-2268,3176,-28,-11,-23
12393,-809,-2370,3161,-23,-31,-15
12403,-754,-2398,3242,-1,-43,-22
12413,-712,-2310,3243,19,-37,-11
12423,-717,-2240,3263,-1,-10,-3
12433,-755,-2159,3213,-33,11,-26
12444,-780,-2142,3243,-72,21,-37
12454,-807,-2206,3229,-104,21,-30
12464,-793,-2298,3196,-86,6,-22
12474,-783,-2356,3201,-72,-6,-23
12484,-751,-2360,3199,-38,-24,-15
12494,-726,-2295,3207,-36,-32,-5
12504,-731,-2253,3222,-50,-36,-6
12514,-722,-2209,3155,-50,-35,-3
12524,-709,-2256,3166,-41,-34,-1
12534,-708,-2270,3193,-53,-29,3
12544,-715,-2295,3189,-67,-8,-7
12554,-711,-2279,3187,-63,-7,-6
12564,-710,-2246,3185,-58,8,8
12574,-723,-2248,3163,-65,10,13
12584,-731,-2289,3150,-51,10,5
12594,-738,-2339,3138,-43,11,9
12604,-745,-2345,3154,-22,30,6
12614,-806,-2358,3140,4,26,4
12624,-827,-2355,3161,42,28,-2
12634,-835,-2353,3175,30,18,-9
12645,-837,-2331,3193,23,19,-27
12655,-812,-2294,3233,22,6,-36
12665,-782,-2243,3235,15,-8,-26
12675,-740,-2231,3207,14,-25,-26
12685,-701,-2226,3232,6,-29,-23
12695,-675,-2235,3222,-28,-17,-15
12705,-646,-2212,3198,-39,-15,-8
12715,-645,-2208,3176,-43,-6,4
12725,-683,-2231,3181,-49,-5,13
12735,-718,-2311,3201,-52,-9,14
12745,-719,-2350,3150,-30,-13,22
12755,-699,-2373,3123,-7,-8,25
12765,-722,-2342,3164,6,0,26
12775,-778,-2324,3181,-3,8,30
12785,-817,-2290,3216,-10,9,25
12795,-823,-2262,3224,-40,7,12
12805,-808,-2229,3210,-71,3,6
12815,-815,-2236,3226,-99,17,-10
12825,-800,-2228,3199,-137,20,-24
12835,-833,-2277,3143,-134,9,-37
12846,-781,-2354,3104,-89,-11,-36
12856,-718,-2405,3130,-67,-12,-25
12866,-663,-2412,3113,-43,-9,-15
12876,-679,-2395,3124,-10,3,-7
12886,-705,-2339,3166,13,0,-1
12896,-715,-2287,3185,9,0,3
12906,-730,-2239,3201,-16,-3,8
12916,-715,-2239,3203,-38,0,8
12926,-710,-2238,3226,-68,12,1
12936,-732,-2272,3177,-77,17,8
12946,-789,-2323,3152,-57,14,11
12956,-795,-2351,3139,-51,2,19
12966,-794,-2350,3138,-47,1,20
12976,-769,-2364,3106,-30,1,20
12986,-790,-2393,3158,-13,10,16
12996,-822,-2367,3154,-7,3,15
13006,-808,-2336,3191,-7,-2,10
13016,-758,-2312,3207,-24,-2,3
13026,-727,-2299,3191,-37,6,-4
13036,-755,-2304,3200,-55,11,-8
13047,-752,-2278,3187,-79,19,-14
13057,-746,-2274,3163,-91,14,-12
13067,-739,-2323,3144,-66,8,-14
13077,-711,-2360,3153,-60,6,-3
13087,-706,-2367,3083,-24,-4,11
13097,-707,-2372,3139,-8,3,20
13107,-735,-2357,3147,-8,2,33
13117,-779,-2306,3171,-2,-3,29
13127,-779,-2324,3192,-10,0,25
13137,-789,-2292,3187,-32,5,25
13147,-794,-2279,3169,-43,0,14
13157,-788,-2270,3170,-54,-10,19
13167,-766,-2313,3155,-56,-9,13
13177,-719,-2336,3136,-60,0,19
13187,-735,-2404,3087,-47,-2,38
13197,-745,-2493,3093,2,6,37
13207,-781,-2444,3101,21,16,32
13217,-820,-2366,3135,45,8,29
13227,-818,-2310,3189,35,0,16
13237,-797,-2277,3183,18,-7,6
13248,-785,-2268,3210,10,-8,-4
13258,-773,-2285,3177,-13,-7,-6
13268,-765,-2297,3154,-20,-7,-15
13278,-749,-2310,3167,-41,-13,-7
13288,-735,-2294,3138,-36,-12,2
13298,-735,-2323,3123,-28,-13,15
13308,-732,-2347,3141,-22,-5,15
13318,-740,-2365,3157,-27,-7,13
13328,-756,-2349,3162,-28,1,20
13338,-757,-2349,3145,-23,-10,27
13348,-755,-2366,3103,9,-6,33
13358,-746,-2388,3139,22,5,34
13368,-773,-2366,3144,21,4,35
13378,-799,-2334,3153,32,-2,28
13388,-803,-2276,3178,28,-2,33
13398,-782,-2236,3166,16,1,31
13408,-796,-2286,3168,3,7,19
13418,-791,-2330,3167,-9,-5,8
13428,-769,-2379,3157,-19,-4,6
13438,-774,-2320,3168,-31,-4,6
13449,-784,-2250,3167,-37,-7,7
13459,-791,-2235,3177,-58,-5,10
13469,-792,-2274,3149,-62,-8,11
13479,-781,-2347,3152,-51,-16,13
13489,-759,-2395,3146,-46,-18,25
13499,-730,-2386,3125,-26,-17,30
13509,-758,-2370,3128,-6,-15,43
13519,-776,-2340,3163,4,-17,48
13529,-790,-2310,3167,0,-22,54
13539,-764,-2265,3179,-13,-23,56
13549,-768,-2275,3158,-28,-15,49
13559,-773,-2351,3153,-37,-12,51
13569,-782,-2402,3140,-31,-10,53
13579,-773,-2378,3138,-31,-12,55
13589,-765,-2307,3125,-25,-15,62
13599,-754,-2266,3191,-26,-11,77
13609,-788,-2256,3170,-25,-12,87
13619,-824,-2308,3158,-24,-16,83
13629,-812,-2391,3148,-35,-18,67
13639,-812,-2467,3129,-30,-17,63
13650,-814,-2480,3051,0,-26,52
13660,-819,-2474,3064,48,-24,42
13670,-828,-2435,3050,62,-18,22
13680,-841,-2418,3034,114,-21,0
13690,-798,-2383,3144,99,6,-32
13700,-772,-2356,3151,82,36,-65
13710,-775,-2312,3204,77,47,-73
13720,-796,-2293,3159,73,52,-67
13730,-827,-2322,3127,81,37,-62
13740,-813,-2338,3134,95,20,-70
13750,-764,-2280,3150,81,26,-72
13760,-759,-2213,3146,55,44,-76
13770,-741,-2152,3170,33,72,-90
13780,-764,-2191,3232,-14,91,-105
13790,-777,-2227,3156,-42,107,-106
13800,-796,-2278,3172,-45,99,-105
13810,-798,-2309,3186,-50,94,-113
13820,-765,-2311,3262,-56,99,-127
13830,-778,-2284,3255,-71,100,-111
13840,-801,-2286,3230,-70,92,-117
13851,-826,-2298,3231,-92,90,-117
13861,-829,-2270,3204,-123,72,-118
13871,-807,-2242,3168,-147,60,-114
13881,-817,-2283,3121,-142,49,-85
13891,-798,-2394,3104,-145,35,-69
13901,-780,-2421,3062,-124,21,-55
13911,-737,-2368,3081,-74,9,-22
13921,-770,-2401,3058,-46,-5,15
13931,-778,-2438,3002,-5,-11,27
13941,-770,-2468,3108,26,-19,28
13951,-767,-2348,3170,29,-10,30
13961,-766,-2207,3189,20,-8,36
13971,-808,-2153,3230,-16,-14,35
13981,-820,-2205,3184,-50,-16,30
13991,-826,-2269,3201,-89,-31,28
14001,-783,-2302,3150,-104,-44,46
14011,-769,-2328,3146,-101,-50,70
14021,-781,-2357,3158,-99,-59,91
14031,-788,-2405,3124,-78,-67,106
14048,-791,-2443,3113,-55,-71,126
14058,-801,-2486,3090,-39,-90,133
14068,-810,-2517,3046,-29,-99,137
14078,-820,-2530,3045,36,-97,133
14088,-796,-2522,3040,74,-89,145
14098,-793,-2478,3053,91,-84,132
14108,-789,-2392,3103,106,-65,118
14118,-804,-2316,3160,114,-59,110
14128,-819,-2264,3175,111,-65,106
14138,-821,-2201,3206,108,-63,95
14148,-803,-2197,3226,75,-63,85
14158,-794,-2186,3189,39,-60,78
14168,-791,-2227,3163,8,-43,66
14178,-795,-2269,3141,-24,-32,58
14188,-798,-2298,3140,-33,-24,53
14198,-798,-2316,3134,-31,-22,54
14208,-804,-2331,3160,-28,-24,53
14218,-823,-2332,3161,-34,-26,46
14228,-818,-2344,3136,-28,-28,48
14238,-802,-2362,3137,-31,-27,40
14248,-811,-2386,3113,-28,-21,32
14258,-805,-2407,3110,-19,-16,24
14268,-789,-2372,3130,-10,-13,24
14278,-800,-2331,3157,8,-12,28
14288,-804,-2282,3160,12,-13,29
14298,-825,-2290,3156,12,-20,32
14308,-821,-2299,3161,3,-25,32
14318,-814,-2310,3138,-4,-30,23
14328,-798,-2328,3137,1,-26,23
14338,-800,-2330,3138,-3,-17,23
14348,-812,-2321,3153,-7,-13,16
14358,-803,-2308,3192,-21,-7,16
14368,-819,-2269,3185,-36,-10,10
14378,-814,-2258,3157,-43,-11,14
14388,-826,-2261,3171,-49,-13,14
14398,-817,-2307,3133,-48,-15,5
14408,-805,-2340,3164,-52,-12,10
14418,-794,-2350,3143,-47,-8,13
14428,-803,-2380,3127,-24,-13,12
14438,-813,-2359,3138,-15,-5,10
14448,-813,-2326,3100,-6,-7,13
14458,-807,-2338,3145,-5,-1,5
14468,-815,-2325,3151,-9,4,4
14478,-800,-2318,3164,-22,3,-3
14488,-784,-2293,3147,-27,6,-6
14498,-815,-2303,3170,-32,4,-9
14508,-809,-2305,3175,-50,7,-12
14518,-812,-2333,3150,-54,7,-16
14528,-814,-2332,3136,-56,4,-11
14538,-808,-2327,3142,-52,4,-19
14548,-794,-2316,3133,-61,6,-12
14558,-802,-2316,3133,-57,4,-6
14568,-813,-2318,3137,-63,2,-6
14578,-794,-2350,3139,-62,3,-15
14588,-811,-2366,3107,-45,-2,-6
14598,-803,-2374,3136,-29,-4,-5
14608,-798,-2365,3125,-28,-11,0
14618,-819,-2367,3112,-17,1,-4
14628,-812,-2375,3112,-14,3,-4
14638,-811,-2347,3142,-17,3,0
14648,-814,-2332,3163,-37,8,-3
14658,-800,-2313,3168,-42,7,-9
14668,-791,-2332,3145,-42,4,-11
14678,-797,-2327,3144,-49,5,-9
14688,-802,-2317,3140,-76,11,-11
14698,-792,-2322,3107,-74,11,-9
14708,-831,-2351,3123,-50,2,-4
14718,-810,-2375,3122,-44,-7,0
14728,-804,-2402,3113,-43,-7,7
14738,-795,-2394,3090,-33,-7,10
14748,-810,-2369,3094,-5,-6,13
14758,-828,-2364,3129,-15,-6,10
14768,-797,-2359,3112,-24,-7,11
14778,-819,-2337,3110,-19,-2,3
14788,-830,-2349,3125,-6,-3,8
14798,-831,-2354,3156,-17,-7,3
14808,-820,-2348,3155,-26,-3,-1
14818,-792,-2320,3128,-47,-1,1
14828,-791,-2323,3121,-31,-2,3
14838,-798,-2344,3146,-40,6,3
14848,-809,-2375,3122,-56,5,-5
14858,-794,-2376,3127,-64,15,-7
14868,-799,-2376,3100,-59,4,-3
14878,-812,-2359,3116,-41,4,0
14888,-838,-2388,3088,-21,-9,-3
14898,-814,-2410,3095,-16,-8,-3
14908,-804,-2416,3117,-13,-9,-9
14918,-792,-2371,3104,-7,-4,-1
14928,-794,-2330,3123,-8,2,-2
14938,-815,-2327,3137,-14,9,-2
14948,-827,-2332,3133,-25,3,6
14958,-809,-2348,3098,-20,-8,0
14968,-810,-2371,3111,-1,-5,0
14978,-801,-2394,3108,-11,-7,6
14988,-806,-2413,3133,-12,-2,11
14998,-803,-2397,3130,-14,0,6
15008,-815,-2346,3120,-14,2,6
15018,-834,-2343,3117,-18,3,7
15028,-829,-2366,3118,-26,-3,3
15038,-824,-2384,3098,-29,-6,-5
15048,-795,-2359,3124,-25,-3,-2
15058,-801,-2361,3121,-33,3,7
15068,-808,-2373,3131,-34,9,-4
15078,-823,-2371,3121,-42,3,-13
15088,-824,-2375,3131,-49,3,-5
15098,-823,-2388,3096,-28,-4,-5
15108,-813,-2408,3097,-16,-6,-9
15118,-801,-2400,3091,-16,-7,-8
15128,-795,-2414,3094,-8,-1,-7
15138,-808,-2403,3118,-11,3,-5
15148,-810,-2378,3124,-10,4,-5
15158,-815,-2355,3123,-19,9,0
15168,-811,-2340,3128,-18,-2,-9
15178,-808,-2343,3122,-29,-6,-5
15188,-798,-2354,3118,-28,-6,0
15198,-800,-2387,3129,-28,-3,-4
15208,-809,-2386,3112,-30,1,-1
15218,-811,-2357,3118,-37,3,-3
15228,-816,-2369,3130,-44,2,-7
15238,-815,-2362,3119,-55,9,-8
15248,-820,-2350,3090,-52,6,-7
15258,-831,-2381,3081,-34,-3,-8
15268,-811,-2415,3085,-30,-6,-3
15278,-805,-2427,3082,-25,-5,-5
15288,-824,-2409,3105,-10,-3,-4
15299,-815,-2394,3109,-10,-1,-2
15309,-815,-2377,3108,-11,-7,3
15319,-823,-2359,3101,3,-7,1
15329,-817,-2385,3106,3,-12,-3
15339,-804,-2390,3090,-4,-12,0
15349,-813,-2364,3109,-14,-2,-3
15359,-811,-2365,3125,-28,-4,-6
15369,-799,-2354,3122,-37,3,-7
15379,-803,-2340,3101,-50,1,-4
15389,-803,-2378,3102,-45,-2,-4
15399,-793,-2409,3068,-40,-8,2
15409,-790,-2409,3071,-27,-10,9
15419,-785,-2428,3087,-13,4,9
15429,-817,-2423,3104,-15,7,10
15439,-852,-2417,3107,-12,11,7
15449,-849,-2387,3102,-9,4,-3
15459,-852,-2391,3116,-10,-3,-6
15469,-853,-2379,3108,-20,1,-9
15479,-809,-2364,3096,-39,1,-17
15489,-791,-2372,3107,-47,7,-15
15499,-802,-2379,3103,-44,10,-13
15509,-798,-2376,3116,-43,4,-7
15519,-796,-2395,3074,-42,1,-8
15529,-800,-2400,3071,-25,-7,-2
15539,-781,-2425,3099,-22,-7,2
15550,-786,-2421,3092,-16,-3,8
15560,-810,-2398,3109,-17,-3,8
15570,-806,-2400,3109,-14,-2,11
15580,-830,-2389,3087,-9,0,10
15590,-849,-2380,3099,-16,-3,0
15600,-828,-2397,3067,-13,-8,1
15610,-840,-2397,3105,-5,-13,1
15620,-802,-2408,3070,-10,-20,8
15630,-779,-2393,3085,-14,-15,6
15640,-771,-2385,3088,-16,-5,12
15650,-804,-2396,3080,-11,3,10
15660,-828,-2397,3087,-4,6,8
15670,-838,-2420,3078,-8,5,7
15680,-835,-2429,3094,-4,4,3
15690,-841,-2427,3108,-11,0,0
15700,-849,-2388,3113,-16,1,-7
15710,-856,-2384,3113,-23,0,-15
15720,-829,-2367,3099,-32,-6,-12
15730,-796,-2365,3115,-52,-8,-13
15740,-777,-2373,3087,-60,-2,-10
15750,-769,-2373,3079,-60,4,-4
15760,-785,-2392,3087,-53,3,0
15770,-800,-2411,3087,-45,1,7
15780,-788,-2434,3044,-40,-4,11
15790,-793,-2444,3076,-24,-4,10
15801,-794,-2421,3059,-19,-4,15
15811,-808,-2427,3079,-18,6,17
15821,-821,-2416,3068,-14,7,7
15831,-828,-2410,3081,-18,7,11
15841,-848,-2394,3075,-23,4,7
15851,-840,-2395,3071,-17,0,1
15861,-846,-2420,3074,-18,-8,-4
15871,-842,-2415,3058,-12,-10,-7
15881,-820,-2435,3074,-11,-8,-2
15891,-814,-2410,3082,-4,-9,-2
15901,-801,-2409,3079,4,-1,0
15911,-824,-2418,3083,3,-1,-6
15921,-828,-2393,3089,-6,-5,-5
15931,-810,-2383,3079,-7,-13,-4
15941,-806,-2382,3053,-3,-10,-2
15951,-799,-2405,3099,-4,-2,1
15961,-800,-2424,3069,-1,-6,-3
15971,-793,-2435,3076,7,3,4
15981,-793,-2439,3064,14,6,-1
15991,-808,-2408,3048,31,11,-1
16001,-813,-2435,3030,41,17,-7
16011,-817,-2466,3063,28,23,-19
16021,-845,-2503,3019,47,28,-30
16031,-841,-2506,3013,96,26,-35
16041,-840,-2455,3128,89,12,-22
16052,-841,-2374,3114,81,17,-33
16062,-828,-2326,3084,73,10,-32
16072,-838,-2354,3054,48,16,-33
16082,-839,-2402,3112,38,22,-47
16092,-814,-2350,3115,7,16,-69
16102,-792,-2271,3093,24,42,-71
16112,-850,-2344,3133,-4,51,-82
16122,-886,-2432,3132,-45,55,-116
16132,-827,-2434,3155,-57,53,-143
16142,-808,-2383,3192,-64,26,-155
16152,-818,-2326,3175,-88,23,-160
16162,-860,-2281,3187,-119,28,-167
16172,-835,-2278,3133,-163,20,-185
16182,-795,-2379,3036,-166,14,-169
16192,-765,-2487,3013,-144,15,-142
16202,-727,-2544,2963,-108,22,-121
16212,-704,-2574,2965,-52,32,-95
16222,-713,-2563,3032,-16,42,-78
16232,-744,-2500,3053,-9,49,-60
16242,-780,-2409,3053,20,40,-52
16252,-801,-2356,3102,26,37,-44
16262,-794,-2347,3135,1,31,-39
16272,-781,-2377,3107,-7,14,-42
16282,-782,-2402,3116,-17,9,-35
16292,-778,-2394,3077,-25,11,-32
16303,-800,-2397,3031,-10,1,-36
16313,-811,-2459,3023,-14,5,-34
16323,-796,-2483,2997,1,6,-39
16333,-765,-2507,3049,16,18,-45
16343,-761,-2491,3047,19,38,-45
16353,-751,-2427,3103,16,43,-47
16363,-776,-2366,3124,9,54,-49
16373,-802,-2321,3130,-18,47,-51
16383,-806,-2317,3110,-36,34,-50
16393,-807,-2359,3072,-46,33,-48
16403,-782,-2436,3050,-62,35,-57
16413,-767,-2473,3047,-66,41,-54
16423,-766,-2468,3027,-55,45,-50
16433,-789,-2436,3025,-27,56,-41
16443,-808,-2424,3083,-23,52,-44
16453,-809,-2444,3117,-40,48,-53
16463,-803,-2421,3133,-37,37,-47
16473,-802,-2381,3136,-49,33,-43
16483,-796,-2343,3177,-75,20,-36
16493,-797,-2375,3152,-112,8,-24
16503,-781,-2404,3048,-110,-6,-17
16513,-753,-2510,2967,-84,-14,5
16523,-735,-2585,2956,-62,-17,6
16533,-714,-2595,3001,-23,-4,18
16543,-718,-2510,3034,-2,5,24
16554,-782,-2427,3043,8,9,35
16564,-818,-2386,3100,-10,14,41
16574,-832,-2384,3074,-25,4,30
16584,-814,-2431,3035,-28,-8,26
16594,-801,-2503,3073,-35,-3,10
16604,-796,-2499,3050,-36,-11,1
16614,-812,-2459,3064,-31,-9,-1
16624,-814,-2459,3043,-43,-1,-10
16634,-781,-2457,3037,-50,0,-7
16644,-778,-2467,2997,-45,4,-9
16654,-735,-2477,3025,-32,7,2
16664,-757,-2452,3015,-25,7,16
16674,-801,-2490,3024,-20,4,22
16684,-827,-2502,3004,-16,2,19
16694,-814,-2492,2997,17,-5,12
16704,-801,-2508,3007,23,-10,14
16714,-803,-2493,3049,18,-3,11
16724,-799,-2458,3040,26,-6,0
16734,-805,-2433,3062,27,-10,12
16744,-809,-2437,3064,25,-19,10
16754,-801,-2439,3053,6,-13,3
16764,-763,-2437,3049,0,-19,-3
16774,-765,-2446,3069,-14,-12,2
16784,-758,-2431,3057,-25,-8,2
16794,-769,-2413,3048,-28,-4,0
16805,-781,-2401,3051,-48,5,4
16815,-795,-2436,3043,-50,2,3
16825,-800,-2458,3056,-49,-6,16
16835,-800,-2465,3042,-36,-2,22
16845,-802,-2481,2985,-17,-10,13
16855,-821,-2528,3045,-26,0,5
16865,-811,-2558,3032,-31,1,-2
16875,-801,-2540,3009,-5,2,-7
16885,-799,-2502,3040,5,-3,-5
16895,-821,-2465,3051,-2,-5,-11
16905,-803,-2433,3013,-10,-6,-11
16915,-781,-2429,3023,-6,-6,-12
16925,-770,-2446,3024,9,0,-14
16935,-782,-2457,3044,10,5,-15
16945,-794,-2498,3026,12,10,-11
16955,-779,-2537,3025,15,16,-11
16965,-779,-2547,3020,30,15,-12
16975,-790,-2502,3044,48,10,-6
16985,-802,-2418,3048,41,8,-6
16995,-798,-2367,3056,37,1,-5
17005,-812,-2385,3064,22,0,-7
17015,-845,-2403,3061,8,2,-21
17025,-810,-2403,3078,-3,-11,-16
17035,-788,-2465,3067,-22,-15,-9
17045,-755,-2513,3049,-29,-2,-17
17056,-745,-2507,3023,-20,0,-7
17066,-780,-2471,3017,-3,7,-2
17076,-816,-2435,3036,14,1,0
17086,-802,-2442,3061,17,-3,-1
17096,-783,-2445,3066,10,-2,-4
17106,-774,-2440,3083,2,0,-4
17116,-797,-2434,3058,-15,6,6
17126,-793,-2431,3059,-24,1,-4
17136,-800,-2459,3059,-36,2,-5
17146,-785,-2484,3020,-24,-7,0
17156,-785,-2482,3024,0,-9,3
17166,-773,-2476,3045,-1,-8,8
17176,-794,-2435,3078,-10,-4,10
17186,-799,-2444,3079,-19,-1,8
17196,-786,-2421,3092,-33,-3,16
17206,-787,-2426,3075,-41,2,10
17216,-801,-2421,3068,-54,4,7
17226,-793,-2437,3058,-61,7,4
17236,-792,-2438,3026,-67,4,6
17246,-772,-2462,3058,-90,18,12
17257,-772,-2460,3057,-79,17,2
17267,-794,-2464,3027,-91,21,16
17277,-836,-2500,3045,-54,-4,17
17287,-841,-2529,3032,-64,-22,27
17297,-822,-2528,3048,-53,-34,25
17307,-800,-2495,3023,-48,-38,26
17317,-823,-2435,3075,-49,-38,25
17327,-800,-2400,2994,-46,-40,21
17337,-803,-2479,3023,-35,-39,33
17347,-787,-2522,3055,-39,-51,37
17357,-758,-2509,3015,-24,-49,33
17367,-763,-2461,3033,-2,-51,45
17377,-815,-2447,2998,11,-50,43
17387,-836,-2504,3055,18,-47,37
17397,-808,-2515,3022,10,-41,21
17407,-792,-2497,3047,24,-55,23
17417,-801,-2490,3052,26,-64,42
17427,-778,-2460,3086,19,-71,36
17437,-783,-2443,3065,8,-70,38
17447,-810,-2428,3071,1,-79,40
17458,-806,-2431,3050,-5,-84,33
17468,-815,-2460,3016,-16,-84,23
17478,-787,-2501,3015,4,-95,25
17488,-784,-2541,3042,4,-90,29
17498,-748,-2501,3005,12,-85,21
17508,-742,-2467,3007,44,-80,25
17518,-788,-2477,3045,38,-86,42
17528,-788,-2419,3165,8,-88,44
17538,-762,-2339,3108,-24,-83,38
17548,-765,-2342,3086,-43,-92,44
17558,-801,-2390,3066,-56,-108,45
17568,-804,-2403,3039,-46,-116,40
17578,-759,-2471,3005,-35,-120,47
17588,-750,-2566,2987,1,-124,40
17598,-737,-2617,2920,28,-113,32
17608,-703,-2574,2969,54,-95,20
17618,-690,-2494,3066,64,-69,28
17628,-739,-2377,3117,40,-46,14
17638,-741,-2361,3104,26,-30,11
17648,-752,-2421,3068,8,-39,9
17659,-745,-2457,3054,-7,-49,7
17669,-709,-2448,3053,-14,-35,11
17679,-720,-2445,3032,4,-48,12
17689,-734,-2440,3083,-16,-32,18
17699,-730,-2432,3082,-27,-23,13
17709,-727,-2422,3061,-34,-23,15
17719,-752,-2415,3084,-42,-26,17
17729,-741,-2441,3074,-52,-18,14
17739,-751,-2464,3039,-44,-12,12
17749,-734,-2508,3039,-29,-11,13
17759,-726,-2495,3045,-21,-3,6
17769,-733,-2470,3040,-8,2,4
17779,-756,-2442,3071,-15,11,5
17789,-762,-2434,3049,-15,1,0
17799,-777,-2480,3049,-16,-5,-3
17809,-746,-2472,3072,-5,-9,-2
17819,-729,-2433,3077,-14,0,-1
17829,-724,-2416,3036,-2,10,-5
17839,-736,-2454,3071,-6,5,-5
17849,-744,-2515,3030,-14,12,-5
17860,-743,-2509,3049,14,6,-7
17870,-706,-2479,3071,24,13,0
17880,-727,-2448,3098,24,8,1
17890,-746,-2427,3085,24,7,0
17900,-763,-2413,3055,17,-4,8
17910,-775,-2440,3032,19,-9,8
17920,-763,-2459,3045,29,-17,3
17930,-746,-2463,3029,30,-19,-7
17940,-725,-2489,3051,52,-7,-7
17950,-732,-2502,3018,58,3,-1
17960,-721,-2491,3066,84,5,1
17970,-740,-2458,3065,106,-5,5
17980,-763,-2477,3065,119,-24,17
17990,-849,-2526,3037,125,-14,-10
18000,-867,-2468,3134,145,-53,-6
18010,-772,-2320,3169,112,-82,-3
18020,-673,-2276,3153,54,-74,-17
18030,-624,-2286,3140,22,-24,-33
18040,-682,-2357,3153,-29,12,-32
18050,-758,-2373,3077,-67,16,-27
18061,-766,-2399,3062,-62,7,-37
18071,-736,-2475,3084,-48,-5,-25
18081,-700,-2563,3086,-31,-4,-19
18091,-697,-2562,3072,-4,-5,-18
18101,-706,-2457,3094,18,0,-6
18111,-700,-2347,3099,18,4,5
18121,-727,-2307,3108,-2,4,5
18131,-717,-2350,3132,-31,6,-6
18141,-712,-2379,3113,-52,9,-2
18151,-720,-2448,3082,-38,6,0
18161,-738,-2450,3091,-26,9,4
18171,-751,-2460,3070,-31,-3,10
18181,-735,-2432,3074,-24,-6,9
18191,-721,-2430,3079,-10,0,1
18201,-729,-2416,3090,-20,2,7
18211,-711,-2403,3092,-26,7,5
18221,-730,-2396,3061,-22,7,8
18231,-743,-2404,3103,-25,1,6
18241,-743,-2438,3110,-27,0,3
18251,-732,-2476,3062,-25,-3,3
18262,-728,-2463,3073,-26,-1,3
18272,-746,-2455,3074,-26,0,3
18282,-728,-2443,3064,-24,0,2
18292,-724,-2427,3083,-20,7,-2
18302,-757,-2410,3123,-31,19,3
18312,-771,-2412,3092,-46,24,-2
18322,-768,-2386,3093,-56,23,-6
18332,-774,-2415,3103,-54,20,-3
18342,-762,-2425,3079,-62,13,-5
18352,-744,-2434,3044,-43,2,-3
18362,-736,-2482,3062,-23,2,-2
18372,-752,-2516,3065,-8,-7,-4
18382,-735,-2518,3063,7,-10,-4
18392,-751,-2493,3096,18,-9,2
18402,-740,-2427,3098,12,-12,-10
18412,-754,-2390,3082,2,-8,-10
18422,-732,-2370,3096,-19,-10,-8
18432,-741,-2392,3053,-13,-23,-4
18442,-713,-2430,3075,-13,-19,-5
18452,-705,-2457,3070,-25,-27,2
18463,-700,-2442,3063,-14,-18,7
18473,-715,-2425,3059,-14,-13,6
18483,-748,-2416,3074,-22,-6,9
18493,-756,-2403,3095,-37,-4,8
18503,-728,-2415,3082,-31,-12,6
18513,-737,-2435,3021,-19,-19,8
18523,-722,-2478,3033,9,-25,12
18533,-728,-2506,3039,34,-22,13
18543,-751,-2512,3031,62,-22,18
18553,-738,-2511,3049,84,-22,13
18563,-745,-2472,3067,73,-19,9
18573,-751,-2414,3125,62,-13,6
18583,-743,-2349,3138,37,-10,-4
18593,-765,-2340,3109,13,0,0
18603,-756,-2348,3129,-12,-4,-8
18613,-736,-2394,3095,-26,-2,-6
18623,-713,-2424,3083,-36,1,-4
18633,-724,-2425,3079,-39,2,-4
18643,-729,-2439,3086,-25,1,3
18653,-726,-2447,3083,-25,0,7
18664,-723,-2436,3083,-22,-12,2
18674,-714,-2451,3079,-14,-9,10
18684,-710,-2431,3114,-17,-10,7
18694,-719,-2409,3102,-27,-9,6
18704,-724,-2410,3086,-28,-1,8
18714,-730,-2416,3120,-38,1,8
18724,-760,-2437,3099,-53,7,5
18734,-761,-2447,3046,-47,4,1
18744,-740,-2446,3053,-39,1,-6
18754,-730,-2446,3056,-31,4,0
18764,-752,-2453,3053,-8,1,-1
18774,-747,-2481,3057,-3,-3,3
18784,-739,-2464,3059,14,0,1
18794,-747,-2440,3093,10,4,-5
18804,-767,-2421,3091,-2,6,-8
18814,-767,-2427,3090,-3,10,-11
18824,-766,-2415,3088,-14,2,-14
18834,-767,-2439,3099,6,-3,-12
18844,-732,-2451,3107,-14,-7,-10
18854,-726,-2438,3057,-6,-12,-7
18865,-702,-2420,3088,7,-9,-9
18875,-699,-2410,3098,-9,-3,-1
18885,-715,-2385,3125,-10,-2,-2
18895,-697,-2391,3118,-29,6,-6
18905,-714,-2396,3071,-40,8,-4
18915,-734,-2440,3089,-42,8,-5
18925,-749,-2455,3086,-48,7,-1
18935,-746,-2452,3066,-46,3,2
18945,-751,-2455,3035,-28,-4,2
18955,-734,-2470,3073,-29,-7,4
18965,-722,-2454,3042,-20,-11,-3
18975,-718,-2459,3057,-9,-12,-6
18985,-717,-2452,3077,-6,-14,6
18995,-702,-2434,3042,10,-18,12
19005,-696,-2439,3082,17,-10,11
19015,-732,-2429,3074,3,10,20
19025,-765,-2451,3064,10,11,11
19035,-797,-2457,3103,16,3,11
19045,-786,-2446,3093,18,-10,2
19055,-779,-2451,3091,26,-16,2
19066,-757,-2430,3086,12,-23,-8
19076,-742,-2418,3100,3,-13,-8
19086,-730,-2417,3108,-1,-15,-10
19096,-719,-2415,3090,-3,-18,-12
19106,-726,-2416,3083,-10,-21,-8
19116,-686,-2429,3063,-1,-22,2
19126,-683,-2436,3069,4,-24,12
19136,-683,-2420,3069,-6,-21,13
19146,-701,-2409,3097,0,-17,26
19156,-706,-2407,3116,-6,-20,20
19166,-741,-2420,3116,-18,-12,17
19176,-758,-2418,3098,-30,-12,15
19186,-743,-2425,3083,-40,-10,11
19196,-759,-2476,3032,-35,-3,0
19206,-753,-2487,3052,-19,-5,0
19216,-747,-2479,3072,-16,-6,-1
19226,-718,-2469,3057,-6,-13,6
19236,-713,-2435,3068,7,-13,7
19246,-698,-2401,3113,-1,0,17
19256,-714,-2414,3094,-11,7,11
19267,-752,-2423,3099,-15,10,10
19277,-778,-2445,3092,-9,3,8
19287,-775,-2448,3087,-11,-4,1
19297,-776,-2454,3085,-16,-2,-2
19307,-761,-2433,3085,-16,1,1
19317,-741,-2430,3097,-27,-3,-13
19327,-743,-2415,3108,-32,-2,-11
19337,-704,-2403,3100,-39,-2,-11
19347,-704,-2396,3066,-41,-8,-7
19357,-688,-2424,3030,-41,-8,2
19367,-677,-2474,3068,-21,-6,5
19377,-692,-2489,3066,-10,-6,11
19387,-734,-2468,3065,-1,-7,15
19397,-746,-2437,3084,10,-4,12
19407,-753,-2428,3099,-10,-13,7
19417,-732,-2413,3071,-30,-14,3
19427,-736,-2409,3104,-33,-5,-5
19437,-714,-2436,3081,-39,-1,-2
19447,-735,-2453,3076,-38,7,-6
19457,-733,-2462,3021,-27,2,-7
19468,-745,-2470,3055,-6,-2,9
19478,-732,-2459,3081,-11,-6,11
19488,-738,-2442,3061,-16,8,2
19498,-750,-2450,3083,-3,5,5
19508,-782,-2470,3091,-6,4,6
19518,-769,-2469,3081,-18,-7,-3
19528,-766,-2428,3094,-15,-8,-3
19538,-741,-2410,3090,-13,-5,-2
19548,-746,-2430,3070,-19,-2,-7
19558,-745,-2433,3101,-18,4,-12
19568,-762,-2462,3053,-24,-3,-14
19578,-728,-2463,3077,-8,-11,-11
19588,-696,-2449,3054,7,-16,2
19598,-683,-2429,3078,15,-8,5
19608,-706,-2406,3099,-2,3,6
19618,-721,-2406,3096,-15,3,-2
19628,-723,-2412,3092,-21,-1,2
19638,-735,-2451,3075,-34,-4,2
19648,-732,-2458,3075,-31,-4,4
19658,-737,-2450,3068,-35,-3,-3
19669,-734,-2479,3067,-14,-2,-1
19679,-744,-2437,3074,-13,-4,2
19689,-725,-2447,3082,-19,-1,-1
19699,-727,-2444,3087,-22,2,0
19709,-745,-2455,3068,-28,6,-1
19719,-743,-2479,3051,-9,4,0
19729,-736,-2471,3066,-15,-3,0
19739,-733,-2436,3061,8,-12,3
19749,-737,-2430,3063,13,-2,3
19759,-735,-2418,3090,15,-10,7
19769,-753,-2447,3086,19,-7,12
19779,-759,-2462,3074,21,-12,12
19789,-753,-2446,3096,11,-16,9
19799,-762,-2436,3069,-8,-12,0
19809,-751,-2408,3088,-20,-8,2
19819,-735,-2418,3077,-30,1,-5
19829,-732,-2445,3087,-41,5,-7
19839,-713,-2442,3062,-34,2,-5
19849,-722,-2451,3051,-17,-3,2
19859,-705,-2472,3043,5,-10,8
19870,-705,-2459,3059,-4,-13,12
19880,-717,-2432,3078,-4,-5,8
19890,-734,-2434,3078,-5,-1,5
19900,-738,-2424,3093,-9,7,7
19910,-748,-2429,3078,-15,8,-1
19920,-748,-2461,3075,-8,4,-1
19930,-757,-2474,3092,-1,-3,3
19940,-733,-2456,3082,7,-8,2
19950,-747,-2425,3077,-2,-10,1
19960,-753,-2419,3079,-3,-11,-3
19970,-742,-2417,3087,-15,-14,-1
19980,-753,-2439,3066,-9,-9,3
19990,-751,-2491,3059,-2,-9,-2
20000,-750,-2477,3056,12,-17,11
20010,-716,-2436,3091,13,-20,8
20020,-700,-2394,3116,-6,-15,4
20030,-718,-2383,3101,-14,-5,-3
20040,-755,-2435,3084,-22,1,-2
20050,-765,-2468,3043,-23,-6,-3
20060,-738,-2481,3041,-18,-11,-2
20071,-729,-2473,3077,-8,-7,-2
20081,-722,-2460,3058,-1,4,-4
20091,-729,-2414,3087,7,-1,-9
20101,-737,-2408,3074,2,-3,-3
20111,-729,-2421,3091,-1,-3,-5
20121,-726,-2442,3094,-8,-4,1
20131,-728,-2458,3085,-11,-11,0
20141,-723,-2461,3082,4,-15,10
20151,-715,-2423,3068,10,-21,10
20161,-723,-2417,3075,7,-19,8
20171,-735,-2435,3078,5,-22,5
20181,-756,-2466,3065,2,-17,9
20191,-769,-2483,3076,9,-17,-2
20201,-769,-2464,3085,19,-17,-1
20211,-765,-2441,3091,6,-22,-7
20221,-733,-2426,3098,4,-24,-11
20231,-720,-2428,3110,-3,-18,-5
20241,-719,-2422,3078,-4,-27,-3
20251,-698,-2425,3079,2,-29,-1
20261,-699,-2415,3056,-5,-18,1
20272,-696,-2438,3060,13,-15,10
20282,-716,-2429,3125,2,-8,15
20292,-720,-2409,3120,-5,-5,14
20302,-730,-2413,3088,-17,-2,6
20312,-723,-2425,3089,-18,-5,4
20322,-743,-2453,3090,-16,-9,-3
20332,-725,-2471,3072,-12,-10,-3
20342,-710,-2466,3069,3,-9,-4
20352,-730,-2451,3096,5,-5,-3
20362,-730,-2424,3092,-1,-12,1
20372,-723,-2422,3065,-2,-12,-7
20382,-720,-2410,3066,7,-15,-4
20392,-710,-2435,3105,1,-14,4
20402,-724,-2439,3109,-11,-9,0
20412,-711,-2437,3072,-9,-6,-5
20422,-718,-2418,3094,-11,0,-7
20432,-743,-2436,3103,-11,5,-2
20442,-733,-2427,3087,-25,1,-4
20452,-728,-2435,3065,-13,0,-2
20462,-737,-2433,3095,-8,0,-2
20473,-732,-2435,3095,-10,2,-4
20483,-709,-2418,3073,3,4,2
20493,-735,-2425,3100,-4,0,10
20503,-746,-2426,3065,5,-1,9
20513,-770,-2447,3087,5,-7,4
20523,-758,-2437,3098,0,-13,2
20533,-754,-2403,3115,-7,-9,1
20543,-728,-2394,3103,-18,-10,-2
20553,-728,-2394,3103,-33,-8,-7
20563,-712,-2432,3071,-39,-10,-4
20573,-703,-2459,3093,-40,-3,-4
20583,-689,-2465,3084,-31,2,-10
20593,-710,-2469,3089,-12,9,-1
20603,-724,-2451,3066,-8,4,2
20613,-694,-2438,3089,-1,2,0
20623,-711,-2410,3095,-13,8,8
20633,-722,-2390,3114,-21,17,-3
20643,-751,-2408,3083,-30,14,-3
20653,-754,-2428,3083,-14,0,-5
20663,-725,-2459,3073,-18,-4,-4
20674,-722,-2435,3061,-12,-2,-9
20684,-712,-2426,3073,-11,-1,-5
20694,-725,-2448,3097,-12,2,-2
20704,-711,-2447,3104,-7,4,-1
20714,-722,-2445,3078,-7,0,-5
20724,-740,-2420,3096,-7,2,1
20734,-742,-2419,3093,-25,-4,-10
20744,-738,-2433,3087,-16,-1,-1
20754,-738,-2431,3076,-9,-12,-1
20764,-738,-2457,3072,1,-15,0
20774,-729,-2463,3056,12,-24,-3
20784,-717,-2450,3093,16,-21,-4
20794,-708,-2417,3091,7,-17,5
20804,-699,-2381,3105,-9,3,10
20814,-729,-2378,3091,-18,5,1
20824,-755,-2431,3089,-28,6,-2
20834,-773,-2453,3061,-33,-1,-8
20844,-748,-2484,3081,-20,-15,0
20854,-735,-2483,3066,-3,-15,4
20864,-706,-2452,3063,8,-9,-1
20875,-712,-2437,3090,12,9,5
20885,-722,-2410,3084,0,12,-8
20895,-714,-2413,3137,-1,9,-5
20905,-721,-2409,3109,-16,5,4
20915,-690,-2414,3108,-22,-3,-3
20925,-705,-2415,3098,-34,0,0
20935,-705,-2416,3097,-42,12,4
20945,-724,-2408,3081,-45,10,-1
20955,-736,-2423,3065,-39,2,4
20965,-724,-2449,3045,-32,0,0
20975,-709,-2473,3064,-15,-1,-1
20985,-717,-2490,3061,-7,4,7
20995,-749,-2478,3064,6,3,-2
21005,-746,-2430,3077,10,0,4
21015,-746,-2392,3118,-4,0,7
21025,-756,-2393,3125,-29,1,1
21035,-755,-2399,3109,-50,0,-9
21045,-729,-2425,3065,-53,-3,-7
21055,-718,-2466,3051,-38,-7,-12
21065,-724,-2496,3035,-26,-9,-3
21076,-708,-2487,3028,-10,-4,2
21086,-703,-2470,3065,13,-3,2
21096,-724,-2436,3086,13,1,6
21106,-723,-2435,3082,18,3,10
21116,-751,-2414,3076,16,4,7
21126,-748,-2422,3096,7,0,9
21136,-754,-2392,3091,-6,1,4
21146,-742,-2418,3097,-23,8,1
21156,-736,-2428,3109,-42,13,-8
21166,-749,-2444,3088,-47,10,-8
21176,-735,-2462,3061,-49,11,-6
21186,-734,-2453,3048,-29,-3,0
21196,-735,-2480,3046,-22,-8,-2
21206,-747,-2475,3089,-3,-1,-9
21216,-728,-2445,3081,-4,-15,3
21226,-683,-2421,3108,-12,-22,-2
21236,-647,-2397,3102,-27,-11,5
21246,-682,-2417,3078,-12,2,8
21256,-737,-2460,3059,-12,-1,14
21266,-745,-2469,3053,-16,-18,15
21277,-723,-2454,3067,-15,-19,9
21287,-728,-2454,3077,-9,-15,5
21297,-743,-2458,3091,-7,-9,9
21307,-755,-2444,3054,-8,-13,-2
21317,-759,-2437,3093,-13,-13,-5
21327,-762,-2432,3074,-17,-23,-3
21337,-728,-2446,3067,-20,-23,-4
21347,-724,-2480,3047,-5,-26,-4
21357,-727,-2463,3051,18,-32,8
21367,-721,-2441,3081,21,-28,7
21377,-733,-2417,3073,30,-29,11
21387,-760,-2435,3072,38,-24,12
21397,-767,-2455,3075,35,-28,12
21407,-747,-2450,3093,29,-31,8
21417,-721,-2446,3117,5,-27,1
21427,-710,-2400,3077,1,-16,-4
21437,-702,-2390,3112,-1,-10,-3
21447,-722,-2404,3112,-12,-6,-4
21457,-722,-2423,3076,-19,-12,-4
21467,-716,-2456,3066,-1,-17,-5
21478,-705,-2481,3071,4,-20,-2
21488,-698,-2489,3078,16,-25,0
21498,-701,-2458,3105,30,-29,6
21508,-723,-2432,3136,28,-28,3
21518,-730,-2402,3096,8,-29,0
21528,-702,-2378,3123,-9,-35,3
21538,-673,-2384,3108,-28,-18,-1
21548,-684,-2403,3095,-34,-9,-3
21558,-655,-2448,3085,-39,30,-6
21568,-648,-2473,3037,-39,68,-12
21578,-664,-2497,3090,-38,100,-19
21588,-692,-2501,3045,-51,122,-20
21598,-702,-2451,3070,-22,124,-12
21608,-740,-2409,3101,-40,121,-5
21618,-770,-2340,3117,-44,96,-13
21628,-795,-2333,3118,-76,101,-8
21638,-786,-2381,3103,-77,80,-23
21648,-822,-2438,3036,-69,49,-23
21658,-805,-2522,3032,-25,19,-8
21668,-783,-2551,3028,8,0,-6
21679,-735,-2488,3065,26,0,0
21689,-733,-2452,3066,31,9,-4
21699,-724,-2419,3094,29,23,-15
21709,-743,-2414,3105,24,17,-17
21719,-730,-2399,3120,6,7,-12
21729,-739,-2371,3114,-16,5,-6
21739,-710,-2380,3078,-36,6,-13
21749,-714,-2444,3044,-30,16,-13
21759,-700,-2491,3055,-20,20,-6
21769,-720,-2502,2966,0,15,-9
21779,-702,-2525,3114,8,-7,12
21789,-717,-2355,3295,-63,10,23
21799,-759,-2165,3128,-73,49,-14
21809,-822,-2302,3032,-97,53,-21
21819,-875,-2588,2961,-105,19,-20
21829,-799,-2697,2959,-38,-34,-23
21839,-696,-2615,3028,33,-45,16
21849,-674,-2495,3026,69,-24,16
21859,-721,-2428,3061,83,9,8
21869,-781,-2424,3089,61,16,-8
21880,-768,-2416,3070,39,20,-15
21890,-720,-2415,3099,20,35,-17
21900,-706,-2429,3081,-14,54,-32
21910,-718,-2410,3097,-24,81,-42
21920,-782,-2377,3144,-43,70,-28
21930,-813,-2404,3114,-54,51,-42
21940,-825,-2448,3054,-51,35,-49
21950,-783,-2514,3014,-25,15,-48
21960,-754,-2556,2983,12,4,-36
21970,-706,-2513,3010,62,1,-28
21980,-688,-2482,3046,81,2,-16
21990,-737,-2446,3075,80,18,-17
22000,-777,-2404,3142,56,42,-17
22010,-778,-2376,3087,29,35,-26
22020,-764,-2357,3110,6,34,-24
22030,-748,-2358,3101,-14,39,-21
22040,-745,-2399,3103,-27,37,-21
22050,-760,-2412,3066,-19,37,-14
22060,-747,-2463,3099,-35,24,-15
22070,-739,-2432,3080,-47,14,-19
22081,-743,-2422,3036,-26,8,-13
22091,-796,-2436,3061,-20,12,-3
22101,-794,-2467,3080,-22,8,-12
22111,-779,-2501,3024,-7,21,-19
22121,-750,-2489,3040,3,20,-19
22131,-755,-2460,3033,29,21,-12
22141,-749,-2436,3088,28,32,-3
22151,-741,-2424,3111,7,31,-8
22161,-737,-2369,3098,-17,28,-11
22171,-749,-2343,3112,-40,27,-12
22181,-769,-2357,3125,-53,20,-5
22191,-798,-2427,3100,-70,17,-5
22201,-784,-2452,3074,-70,11,-4
22211,-792,-2460,3081,-70,5,0
22221,-797,-2474,3020,-50,-8,1
22231,-769,-2470,3036,-36,4,-8
22241,-759,-2476,3019,-24,-2,-3
22251,-756,-2482,3031,-15,-1,-1
22261,-757,-2474,3060,-18,1,0
22271,-748,-2450,3085,-16,-2,2
22282,-776,-2426,3074,-26,4,8
22292,-773,-2420,3051,-39,-1,-2
22302,-745,-2400,3045,-48,0,-3
22312,-748,-2422,3063,-68,-3,0
22322,-755,-2448,3050,-73,-1,0
22332,-760,-2467,3007,-47,-3,2
22342,-781,-2501,3037,-25,-4,9
22352,-759,-2539,3038,-23,-8,7
22362,-743,-2497,3038,-9,-9,2
22372,-766,-2457,3028,12,0,5
22382,-806,-2451,3038,27,-7,5
22392,-804,-2476,3072,25,-14,-4
22402,-779,-2489,3077,4,-25,-7
22412,-731,-2478,3083,-1,-25,3
22422,-732,-2436,3105,-19,-16,6
22432,-749,-2395,3099,-38,-2,4
22442,-764,-2381,3049,-34,-2,-1
22452,-787,-2408,3047,-32,-9,-3
22462,-766,-2461,3031,-26,-8,-11
22472,-734,-2509,3058,-10,-8,-7
22483,-736,-2489,3029,-2,-13,1
22493,-739,-2504,3044,20,-8,8
22503,-775,-2508,3098,-7,-2,2
22513,-786,-2470,3068,-13,-9,-4
22523,-759,-2412,3076,-26,-7,3
22533,-763,-2368,3050,-29,-6,1
22543,-754,-2409,3053,-31,-3,-1
22553,-734,-2468,3079,-30,9,-3
22563,-733,-2487,3065,-25,18,10
22573,-746,-2463,3070,-36,20,9
22583,-781,-2455,3051,-31,14,14
22593,-816,-2450,3055,-34,5,13
22603,-808,-2471,3024,-29,-10,12
22613,-783,-2474,3047,-28,-14,1
22623,-764,-2477,3042,-26,-18,-1
22633,-770,-2449,3043,-15,-18,9
22643,-783,-2447,3047,-11,-22,13
22653,-774,-2453,3030,-18,-32,3
22663,-753,-2448,3026,-10,-31,6
22673,-728,-2474,3054,-15,-22,10
22684,-729,-2463,3041,-22,-15,8
22694,-742,-2451,3057,-14,-13,10
22704,-730,-2386,3108,-34,-9,22
22714,-731,-2351,3148,-46,-12,40
22724,-698,-2306,3148,-74,-7,47
22734,-736,-2378,3097,-93,-8,63
22744,-781,-2524,3030,-118,-29,87
22754,-777,-2596,2961,-93,-42,98
22764,-773,-2620,2942,-51,-57,98
22774,-784,-2630,2961,-33,-55,96
22784,-776,-2638,2993,-14,-41,86
22794,-777,-2614,3004,5,-34,78
22804,-796,-2546,3018,32,-39,65
22814,-809,-2442,3057,77,-47,63
22824,-828,-2382,3100,69,-63,72
22834,-827,-2363,3099,45,-64,64
22844,-815,-2396,3046,55,-69,51
22854,-778,-2432,3061,44,-65,38
22864,-765,-2436,3062,40,-50,41
22874,-737,-2466,3090,23,-39,48
22885,-726,-2385,3069,40,-40,62
22895,-743,-2338,3153,42,-21,73
22905,-744,-2322,3132,-3,-20,76
22915,-751,-2412,3170,-42,-26,84
22925,-748,-2471,3075,-68,-26,88
22935,-737,-2541,3033,-45,-39,104
22945,-764,-2569,2979,-29,-47,105
22955,-785,-2588,2928,36,-56,92
22965,-773,-2569,2965,77,-58,83
22975,-791,-2499,2986,109,-54,77
22985,-813,-2479,3055,139,-45,71
22995,-799,-2451,3091,127,-43,60
23005,-798,-2410,3120,114,-31,43
23015,-793,-2360,3084,96,-30,29
23025,-773,-2352,3092,88,-20,33
23035,-779,-2375,3047,93,-9,21
23045,-770,-2421,3075,85,4,20
23055,-781,-2459,3078,91,10,19
23065,-778,-2433,3179,98,5,25
23075,-809,-2352,3118,81,-8,31
23086,-856,-2334,3144,71,-13,22
23096,-891,-2379,3107,38,-15,7
23106,-861,-2442,3057,28,-25,-2
23116,-812,-2462,3046,41,-29,-5
23126,-771,-2438,3051,53,-23,-9
23136,-751,-2393,3100,71,-14,-11
23146,-742,-2336,3141,62,-5,2
23156,-736,-2275,3139,64,-8,6
23166,-751,-2282,3144,59,-6,13
23176,-781,-2380,3074,63,-19,8
23186,-797,-2460,3124,57,-13,-8
23196,-756,-2476,3135,38,-16,-7
23206,-764,-2429,3086,62,-14,-10
23216,-749,-2380,3136,55,-2,-7
23226,-768,-2322,3150,25,0,-6
23236,-779,-2281,3162,20,6,-5
23246,-777,-2234,3183,-1,-8,9
23256,-777,-2262,3197,-4,-21,12
23266,-777,-2315,3143,2,-29,12
23276,-783,-2375,3089,-2,-28,25
23287,-764,-2414,3084,9,-21,14
23297,-752,-2416,3085,10,-4,19
23307,-799,-2411,3116,7,9,24
23317,-814,-2367,3119,16,4,20
23327,-851,-2376,3118,35,-7,27
23337,-850,-2383,3143,26,-14,15
23347,-829,-2378,3137,16,-22,4
23357,-792,-2371,3123,17,-25,0
23367,-790,-2338,3121,26,-24,4
23377,-788,-2338,3145,49,-33,4
23387,-764,-2335,3141,38,-28,0
23397,-725,-2312,3116,39,-27,7
23407,-708,-2321,3123,46,-22,18
23417,-728,-2340,3158,51,-16,21
23427,-749,-2339,3141,15,-9,17
23437,-768,-2311,3133,15,-10,5
23447,-779,-2292,3162,-11,2,-2
23457,-814,-2296,3145,-33,-1,-3
23467,-822,-2359,3126,-27,-8,-7
23477,-804,-2406,3138,-18,-8,-5
23488,-791,-2400,3103,-20,-14,-10
23498,-758,-2366,3137,-8,-7,-10
23508,-765,-2334,3105,-12,-7,-5
23518,-775,-2330,3110,6,-3,-10
23528,-763,-2338,3131,10,-1,-6
23538,-775,-2344,3157,9,1,-6
23548,-785,-2369,3153,-3,12,-2
23558,-799,-2345,3142,-11,24,-2
23568,-812,-2311,3160,-15,20,-6
23578,-823,-2298,3162,-11,7,-4
23588,-825,-2310,3148,-16,4,-2
23598,-797,-2338,3170,-32,-1,-7
23608,-780,-2336,3130,-46,-1,-14
23618,-768,-2346,3121,-27,-12,-16
23628,-751,-2354,3157,-21,-12,-13
23638,-712,-2361,3143,-23,-10,-11
23648,-717,-2331,3137,-23,-13,-7
23658,-720,-2315,3143,-11,-10,9
23668,-763,-2341,3128,-4,-15,16
23678,-789,-2382,3135,1,-8,14
23689,-781,-2387,3143,-5,-9,4
23699,-790,-2345,3165,10,-14,3
23709,-793,-2345,3155,-17,-2,1
23719,-794,-2338,3129,-20,0,-10
23729,-803,-2352,3139,-28,5,-16
23739,-788,-2344,3144,-37,-2,-10
23749,-771,-2325,3131,-41,-5,-13
23759,-754,-2309,3133,-35,-6,-3
23769,-747,-2339,3167,-48,5,1
23779,-754,-2359,3128,-49,-1,1
23789,-760,-2340,3093,-21,-15,9
23799,-744,-2342,3107,4,-18,20
23809,-717,-2329,3126,-6,-9,25
23819,-783,-2364,3109,-9,7,25
23829,-842,-2401,3124,17,8,26
23839,-869,-2412,3192,20,-12,15
23849,-846,-2372,3214,-6,-27,17
23859,-812,-2312,3217,-28,-30,-7
23869,-783,-2280,3186,-63,-23,-18
23879,-795,-2278,3129,-74,-23,-16
23890,-785,-2312,3033,-65,-26,-24
23900,-730,-2384,3117,-63,-23,-8
23910,-740,-2442,3065,-57,-23,-7
23920,-716,-2445,3092,-31,-11,-7
23930,-715,-2399,3074,-27,-5,-1
23940,-739,-2368,3076,-20,-1,6
23950,-750,-2370,3079,-15,11,2
23960,-782,-2390,3093,-4,18,1
23970,-765,-2404,3137,4,23,-4
23980,-769,-2371,3176,-8,31,-9
23990,-812,-2362,3166,-15,28,-8
24000,-837,-2346,3138,18,10,-17
24010,-812,-2356,3165,7,6,-20
24020,-749,-2362,3139,-5,4,-29
24030,-726,-2359,3125,-13,19,-26
24040,-722,-2362,3142,-6,30,-18
24050,-750,-2322,3093,4,33,-11
24060,-780,-2347,3097,35,29,-9
24070,-753,-2375,3123,27,25,-10
24080,-718,-2351,3157,15,35,-12
24091,-760,-2275,3166,8,43,-14
24101,-829,-2280,3177,-9,50,-14
24111,-856,-2344,3122,-38,52,-24
24121,-869,-2418,3141,-53,32,-29
24131,-828,-2430,3122,-48,24,-35
24141,-792,-2404,3161,-41,19,-23
24151,-806,-2354,3090,-26,8,-20
24161,-824,-2355,3087,-17,3,-24
24171,-802,-2385,3082,-5,-4,-22
24181,-765,-2397,3100,-3,-10,-26
24191,-721,-2394,3123,2,7,-20
24201,-694,-2374,3170,-1,24,-16
24211,-733,-2322,3161,-15,43,-11
24221,-786,-2275,3177,-24,31,-9
24231,-831,-2276,3165,-40,18,-3
24241,-810,-2305,3145,-54,0,-2
24251,-797,-2353,3141,-60,-6,-8
24261,-787,-2433,3086,-45,-2,-11
24271,-797,-2454,3093,-38,5,-11
24281,-822,-2453,3052,-19,10,-18
24292,-815,-2424,3069,-5,2,-21
24302,-803,-2410,3111,12,-2,-22
24312,-756,-2374,3112,26,-8,-14
24322,-733,-2360,3164,27,-12,-7
24332,-748,-2358,3195,10,-9,4
24342,-795,-2352,3169,7,-27,14
24352,-825,-2347,3158,-7,-32,14
24362,-830,-2319,3167,-19,-45,8
24372,-795,-2294,3196,-42,-31,0
24382,-792,-2285,3126,-79,-27,-10
24392,-756,-2313,3073,-78,-11,-22
24402,-733,-2382,3080,-113,1,-9
24412,-742,-2409,2997,-94,17,-12
24422,-740,-2433,2993,-88,22,-7
24432,-755,-2402,2991,-48,31,-2
24442,-764,-2415,3102,-26,31,-2
24452,-781,-2414,3153,-33,17,-3
24462,-806,-2374,3123,10,-22,11
24472,-828,-2355,3160,18,-33,21
24482,-783,-2325,3114,10,-47,8
24493,-756,-2372,3163,-18,-29,-10
24503,-757,-2421,3116,-40,-16,-13
24513,-744,-2467,3136,-19,10,-25
24523,-758,-2482,3137,-19,23,-30
24533,-755,-2428,3107,-17,43,-34
24543,-765,-2364,3103,-14,36,-21
24553,-768,-2316,3108,-1,19,-6
24563,-765,-2352,3081,18,12,-4
24573,-779,-2384,3102,19,4,13
24583,-756,-2401,3120,26,7,19
24593,-801,-2363,3167,24,14,17
24603,-792,-2325,3167,-18,18,3
24613,-816,-2370,3095,-2,30,1
24623,-856,-2435,3061,-23,18,-15
24633,-811,-2433,3113,-29,17,-46
24643,-747,-2392,3151,-28,27,-45
24653,-753,-2359,3149,-35,40,-29
24663,-804,-2363,3153,-14,48,-36
24673,-838,-2386,3168,-33,38,-32
24683,-801,-2313,3085,-58,26,-29
24694,-768,-2284,3046,-37,11,-18
24704,-756,-2324,3096,-29,-1,-5
24714,-769,-2420,3142,-41,3,-2
24724,-783,-2457,3079,-38,2,-2
24734,-802,-2465,3039,-21,-2,1
24744,-805,-2435,3020,-19,-2,-5
24754,-814,-2414,3045,0,8,-10
24764,-799,-2406,3074,17,-2,-12
24774,-771,-2411,3080,37,-1,-17
24784,-741,-2429,3073,37,0,-8
24794,-701,-2404,3084,40,16,-4
24804,-733,-2374,3097,41,42,-9
24814,-800,-2344,3175,27,42,0
24824,-874,-2350,3165,19,40,-2
24834,-887,-2340,3167,-9,21,-11
24844,-860,-2331,3154,-21,2,-19
24854,-829,-2355,3124,-35,-10,-22
24864,-806,-2391,3084,-45,-8,-25
24874,-762,-2404,3104,-22,-8,-21
24884,-758,-2404,3116,-20,-12,-8
24895,-752,-2346,3090,-14,-13,-8
24905,-724,-2347,3074,-21,-11,-7
24915,-729,-2350,3085,-28,-6,2
24925,-727,-2400,3099,-20,1,3
24935,-754,-2416,3089,-16,4,12
24945,-784,-2419,3087,-8,9,8
24955,-802,-2400,3113,-2,12,5
24965,-834,-2408,3118,-2,14,14
24975,-839,-2404,3119,-20,-2,2
24985,-799,-2386,3109,-25,-5,-4
24995,-787,-2334,3101,-23,-4,-6
25005,-793,-2350,3122,-28,-4,-11
25015,-792,-2377,3089,-38,-9,-12
25025,-764,-2421,3091,-15,-11,-8
25035,-739,-2402,3098,-10,-11,9
25045,-727,-2378,3082,-12,2,3
25055,-756,-2357,3080,-4,9,12
25065,-803,-2406,3092,-9,13,18
25075,-832,-2443,3107,3,9,16
25085,-837,-2431,3132,-6,15,8
25096,-832,-2367,3103,-13,11,6
25106,-849,-2350,3110,-8,8,-3
25116,-842,-2373,3081,-18,-3,-11
25126,-806,-2428,3073,-10,-11,-14
25136,-763,-2432,3132,-7,-8,-23
25146,-760,-2387,3119,-7,-4,-20
25156,-778,-2312,3131,-18,-4,-17
25166,-755,-2324,3112,-33,-3,-7
25176,-748,-2372,3069,-28,-10,0
25186,-733,-2440,3069,-20,-9,10
25196,-744,-2465,3085,-11,0,15
25206,-766,-2419,3097,-2,2,16
25216,-822,-2383,3123,2,5,9
25226,-833,-2364,3132,-19,8,-4
25236,-832,-2377,3124,-32,-1,-15
25246,-821,-2390,3119,-32,-7,-17
25256,-808,-2413,3109,-27,-11,-14
25266,-782,-2396,3101,-38,-13,-18
25276,-756,-2362,3060,-40,-5,-17
25286,-745,-2386,3096,-27,-1,-8
25297,-726,-2404,3087,-18,4,4
25307,-741,-2441,3059,0,3,7
25317,-756,-2418,3065,21,6,18
25327,-812,-2417,3110,22,5,19
25337,-851,-2402,3109,5,7,12
25347,-849,-2405,3117,15,4,0
25357,-834,-2413,3123,-3,6,-6
25367,-840,-2403,3092,-3,0,-13
25377,-809,-2390,3095,8,-3,-16
25387,-794,-2385,3114,-1,-8,-13
25397,-754,-2375,3093,0,-11,-13
25407,-751,-2371,3082,11,-17,-10
25417,-781,-2366,3145,18,-16,-4
25427,-756,-2340,3107,-6,-16,-3
25437,-744,-2343,3109,-12,-23,7
25447,-722,-2429,3083,-9,-7,11
25457,-726,-2455,3102,-7,8,10
25467,-770,-2424,3140,12,18,24
25477,-817,-2398,3084,9,9,18
25487,-827,-2389,3087,37,1,7
25498,-859,-2405,3120,11,-6,10
25508,-842,-2341,3121,16,-19,-9
25518,-832,-2353,3123,0,-26,-11
25528,-814,-2405,3127,0,-42,-16
25538,-772,-2438,3153,-2,-38,-12
25548,-753,-2400,3165,-25,-36,-6
25558,-766,-2327,3164,-35,-32,-5
25568,-789,-2300,3131,-46,-39,7
25578,-793,-2309,3125,-60,-37,1
25588,-752,-2362,3057,-72,-26,2
25598,-754,-2413,3082,-90,0,12
25608,-791,-2422,3016,-84,7,3
25618,-819,-2440,3017,-71,15,2
25628,-835,-2455,2980,-38,9,6
25638,-804,-2476,3017,-17,4,-14
25648,-790,-2475,3040,-3,-5,-12
25658,-776,-2444,2992,18,-8,-14
25668,-745,-2381,3116,26,-15,-20
25678,-761,-2318,3232,19,-21,-3
25688,-765,-2288,3185,16,-14,-13
25699,-740,-2361,3157,25,-26,1
25709,-713,-2453,3113,-6,1,3
25719,-679,-2462,3114,-23,21,-5
25729,-718,-2373,3114,-11,43,2
25739,-798,-2298,3053,6,50,18
25749,-896,-2367,3088,8,33,13
25759,-855,-2452,3119,-36,21,-18
25769,-800,-2468,3102,0,20,0
25779,-787,-2432,3116,11,12,13
25789,-805,-2386,3138,11,17,-11
25799,-807,-2359,3136,4,13,-4
25809,-807,-2359,3118,2,-2,-8
25819,-765,-2413,3133,9,-1,-8
25829,-762,-2417,3088,9,-7,-1
25839,-756,-2372,3100,2,-4,-2
25849,-786,-2349,3106,-3,-4,2
25859,-758,-2341,3122,-21,-1,5
25869,-777,-2364,3109,-5,-1,11
25879,-805,-2416,3132,-15,1,11
25889,-833,-2419,3090,-24,4,-3
25900,-814,-2392,3091,-17,2,-13
25910,-814,-2362,3115,-29,-2,-12
25920,-815,-2380,3128,-36,0,-19
25930,-798,-2425,3070,-23,-4,-35
25940,-786,-2487,3061,-9,2,-32
25950,-749,-2483,2983,1,8,-28
25960,-710,-2411,3059,32,14,-23
25970,-720,-2352,3072,29,34,-14
25980,-763,-2377,3094,28,42,-17
25990,-808,-2396,3126,34,43,-18
26000,-847,-2399,3168,25,21,-13
26010,-833,-2365,3140,14,14,-11
26020,-846,-2325,3118,-1,-6,-12
26030,-825,-2327,3117,-19,4,-18
26040,-821,-2392,3098,-28,0,-20
26050,-795,-2415,3126,-30,-2,-20
26060,-768,-2408,3111,-36,-2,-14
26070,-760,-2338,3088,-23,-4,-6
26080,-761,-2343,3119,-27,-4,-1
26090,-753,-2346,3072,-38,-2,3
26101,-765,-2400,3060,-30,-2,2
26111,-778,-2452,3088,-29,-1,8
26121,-795,-2458,3071,-24,9,10
26131,-828,-2437,3077,-3,7,4
26141,-833,-2423,3068,1,-7,-1
26151,-833,-2385,3067,0,-8,-12
26161,-806,-2413,3096,2,-16,-19
26171,-775,-2405,3127,4,-6,-21
26181,-769,-2399,3130,2,-5,-19
26191,-750,-2355,3119,-6,4,-18
26201,-733,-2350,3107,-12,0,-9
26211,-740,-2334,3103,-14,-2,-2
26222,-754,-2361,3077,-3,-7,14
26232,-752,-2402,3086,11,-1,20
26242,-801,-2430,3114,11,1,24
26252,-827,-2421,3119,0,2,16
26262,-850,-2395,3114,2,-10,5
26272,-854,-2379,3101,-7,-8,6
26282,-833,-2370,3102,-22,-3,-13
26292,-809,-2383,3114,-34,2,-19
26302,-791,-2393,3126,-35,-5,-22
26312,-771,-2420,3116,-30,-1,-15
26322,-765,-2393,3092,-27,-4,-10
26333,-742,-2366,3098,-25,3,0
26343,-750,-2356,3104,-10,-4,6
26353,-769,-2394,3093,9,4,20
26363,-779,-2403,3089,2,-8,26
26373,-791,-2402,3112,0,-8,25
26383,-808,-2360,3116,-15,-10,18
26393,-805,-2342,3130,-37,-6,14
26403,-830,-2366,3098,-43,-7,1
26413,-828,-2404,3148,-48,-8,0
26423,-813,-2409,3094,-47,-14,5
26433,-800,-2413,3059,-36,-21,6
26444,-765,-2388,3064,-30,-24,8
26454,-747,-2365,3084,-28,-17,11
26464,-748,-2417,3091,-25,-2,10
26474,-756,-2440,3078,-22,8,14
26484,-793,-2418,3113,-6,10,31
26494,-800,-2382,3114,-7,6,33
26504,-830,-2358,3125,-16,5,22
26514,-833,-2392,3079,-33,-4,10
26524,-826,-2396,3112,-41,-10,10
26534,-811,-2400,3097,-48,-10,1
26544,-809,-2405,3112,-50,-12,1
26555,-803,-2430,3071,-55,-17,2
26565,-769,-2461,3050,-34,-27,8
26575,-741,-2438,3046,-12,-23,17
26585,-726,-2381,3096,-2,-16,26
26595,-737,-2324,3127,-12,-10,39
26605,-796,-2319,3119,-23,-1,47
26615,-844,-2392,3068,-21,-5,37
26625,-837,-2505,3050,-7,-16,32
26635,-818,-2545,3059,1,-18,19
26645,-804,-2536,3058,18,-13,4
26655,-827,-2419,3103,21,-10,-12
26666,-805,-2334,3122,4,4,-11
26676,-831,-2286,3096,-20,2,-14
26686,-812,-2347,3096,-36,-3,-18
26696,-759,-2384,3084,-35,-10,-3
26706,-737,-2409,3087,-10,-6,1
26716,-755,-2416,3094,2,4,11
26726,-784,-2416,3073,-3,0,12
26736,-826,-2415,3080,0,-3,20
26746,-838,-2433,3084,1,-9,11
26756,-838,-2426,3107,-9,-13,6
26766,-827,-2398,3099,-14,-6,-1
26777,-818,-2394,3082,-35,-4,-7
26787,-808,-2389,3077,-41,3,-18
26797,-792,-2403,3085,-29,-5,-20
26807,-788,-2408,3067,-12,-16,-19
26817,-785,-2450,3065,16,-21,-15
26827,-774,-2448,3116,15,-35,-8
26837,-751,-2449,3100,40,-46,-7
26847,-779,-2434,3124,52,-53,7
26857,-768,-2366,3125,22,-45,3
26867,-780,-2321,3110,15,-35,-4
26877,-799,-2318,3111,-3,-32,-2
26888,-783,-2336,3084,-18,-30,-11
26898,-745,-2400,3083,-19,-16,-12
26908,-738,-2429,3088,-59,-1,2
26918,-731,-2458,3067,-58,19,-11
26928,-797,-2437,3042,-46,18,-4
26938,-816,-2417,3062,-40,26,-5
26948,-820,-2415,3053,-34,11,-10
26958,-812,-2419,3069,-10,5,-10
26968,-801,-2386,3105,0,6,-7
26978,-797,-2369,3083,12,4,-4
26988,-790,-2398,3094,6,8,-8
26999,-757,-2400,3103,10,5,-10
27009,-750,-2403,3133,5,15,-3
27019,-778,-2396,3133,-14,18,2
27029,-786,-2378,3119,-29,26,-8
27039,-769,-2385,3121,-33,35,-14
27049,-810,-2432,3076,-29,23,-5
27059,-808,-2461,3086,4,19,-16
27069,-786,-2478,3079,-6,11,-15
27079,-795,-2477,3047,10,13,-10
27089,-783,-2421,3099,27,15,-8
27099,-794,-2390,3092,17,11,-6
27110,-792,-2361,3117,19,6,-2
27120,-771,-2342,3122,8,1,-1
27130,-780,-2374,3083,11,4,-4
27140,-779,-2419,3106,3,8,-3
27150,-782,-2421,3100,5,7,1
27160,-804,-2399,3114,10,6,0
27170,-811,-2395,3120,-2,-2,-5
27180,-818,-2378,3107,-16,-1,-15
27190,-806,-2348,3100,-20,7,-25
27200,-798,-2364,3134,-46,3,-30
27210,-775,-2384,3067,-52,3,-36
27220,-733,-2376,3078,-49,6,-26
27230,-742,-2413,3076,-45,21,-15
27240,-784,-2458,3054,-29,25,-3
27250,-840,-2502,3100,-9,17,-8
27260,-854,-2484,3071,3,-1,-1
27270,-840,-2436,3057,19,-15,-8
27280,-800,-2423,3095,15,-7,-8
27290,-781,-2379,3103,11,-3,-14
27300,-774,-2356,3123,-3,8,-13
27310,-764,-2353,3128,-25,9,-16
27320,-767,-2358,3127,-33,9,-7
27330,-765,-2395,3110,-39,6,-4
27340,-744,-2405,3083,-27,13,10
27350,-761,-2365,3112,-28,16,7
27360,-776,-2351,3072,-32,14,7
27370,-824,-2390,3061,-19,11,11
27380,-839,-2465,3078,-21,9,4
27390,-818,-2468,3094,-16,3,-4
27400,-816,-2433,3114,-20,0,-3
27410,-818,-2400,3097,-31,-3,-7
27420,-823,-2400,3048,-37,-10,-9
27430,-806,-2441,3013,-20,-18,-11
27440,-760,-2466,3053,-2,-22,-11
27450,-710,-2445,3055,11,-7,-3
27460,-713,-2425,3081,22,7,3
27470,-770,-2395,3103,22,21,7
27480,-815,-2391,3107,14,17,13
27490,-834,-2375,3108,16,6,12
27500,-836,-2359,3125,-1,-1,6
27510,-851,-2376,3132,-20,-3,3
27520,-832,-2372,3119,-39,-2,-9
27530,-817,-2404,3124,-64,-3,-19
27540,-809,-2385,3095,-71,2,-22
27550,-802,-2402,3087,-70,-5,-18
27560,-797,-2401,3050,-63,-11,-15
27570,-759,-2450,3027,-40,-22,-6
27580,-731,-2481,3034,-19,-22,7
27590,-714,-2480,3035,0,-15,11
27600,-752,-2434,3054,10,-6,12
27610,-796,-2391,3071,18,4,16
27620,-825,-2399,3086,19,0,12
27630,-831,-2416,3095,9,-6,4
27640,-814,-2422,3103,1,-5,1
27650,-819,-2389,3112,-12,-9,-11
27660,-793,-2387,3109,-22,-4,-16
27670,-814,-2374,3084,-35,-8,-16
27680,-799,-2385,3084,-35,-6,-24
27690,-765,-2418,3071,-38,-6,-13
27700,-763,-2437,3055,-22,-5,-9
27710,-763,-2463,3051,7,-9,2
27720,-758,-2432,3042,10,-14,11
27730,-752,-2426,3075,19,-9,16
27740,-766,-2416,3098,21,-8,24
27750,-791,-2402,3107,8,-3,18
27760,-826,-2424,3082,-2,-1,11
27770,-851,-2427,3112,-3,5,2
27780,-857,-2415,3103,-24,-5,-18
27790,-829,-2408,3096,-16,-12,-20
27800,-800,-2423,3083,-6,-19,-16
27810,-792,-2419,3126,-14,-27,-9
27820,-780,-2401,3160,-29,-26,-12
27830,-774,-2362,3149,-65,-19,-16
27840,-780,-2339,3091,-80,-21,-11
27850,-757,-2362,3020,-56,-23,-7
27860,-717,-2421,3010,-35,-16,11
27870,-704,-2477,3013,-51,7,22
27880,-705,-2493,2971,-21,25,18
27890,-745,-2505,3029,-11,52,20
27900,-795,-2507,3015,-10,54,8
27910,-818,-2483,3101,22,42,3
27920,-841,-2416,3094,17,24,-6
27930,-822,-2351,3098,34,8,-3
27940,-838,-2365,3093,21,-5,-6
27950,-829,-2369,3100,23,-8,-14
27960,-791,-2388,3104,20,-17,-4
27970,-799,-2423,3124,2,-6,-2
27980,-776,-2430,3089,1,-2,-2
27990,-772,-2399,3090,-6,12,-1
28000,-779,-2380,3089,-18,17,3
28010,-795,-2378,3092,-6,18,3
28020,-819,-2414,3103,-20,19,13
28030,-834,-2412,3115,-43,13,0
28040,-804,-2394,3086,-45,15,0
28050,-823,-2392,3086,-46,9,6
28060,-840,-2415,3068,-53,9,-7
28070,-834,-2450,3085,-33,0,-17
28080,-816,-2488,3052,-36,-3,-19
28090,-772,-2457,3047,-6,-10,-13
28100,-771,-2473,3061,13,4,-8
28110,-759,-2422,3075,9,12,-16
28120,-793,-2354,3085,4,19,-19
28130,-803,-2340,3130,-29,21,-18
28140,-810,-2400,3080,-35,16,-20
28150,-780,-2470,3080,-36,10,-16
28160,-776,-2467,3058,-23,14,-18
28170,-772,-2411,3072,-18,10,-12
28180,-796,-2390,3063,-17,7,-12
28190,-816,-2431,3047,-16,11,-15
28200,-786,-2484,3099,-5,14,-13
28210,-787,-2490,3050,8,7,-11
28220,-780,-2436,3043,10,13,-13
28230,-800,-2414,3079,17,18,-19
28240,-819,-2419,3094,-3,14,-19
28250,-815,-2411,3114,-9,14,-27
28260,-809,-2394,3103,-1,0,-18
28270,-802,-2362,3073,-1,-7,-16
28280,-796,-2388,3069,-19,-3,-18
28290,-782,-2429,3066,-25,10,-20
28300,-799,-2446,3054,-15,11,-9
28310,-786,-2427,3090,-10,1,-4
28320,-793,-2417,3086,1,2,6
28330,-808,-2412,3078,1,-1,7
28340,-821,-2421,3082,-1,-8,14
28350,-828,-2431,3050,-9,-19,11
28361,-849,-2469,3081,6,-26,10
28371,-847,-2476,3095,7,-47,17
28381,-855,-2431,3097,15,-59,2
28391,-819,-2378,3086,9,-67,-5
28401,-782,-2373,3113,12,-65,9
28411,-776,-2385,3088,-35,-53,-16
28421,-724,-2378,3054,-42,-22,-26
28431,-701,-2404,3087,-80,11,-9
28441,-710,-2407,3056,-105,30,-13
28451,-731,-2422,2991,-108,46,-5
28461,-762,-2441,3006,-68,37,7
28471,-783,-2495,3048,-42,36,17
28481,-784,-2504,3101,-42,28,15
28491,-810,-2440,3018,-11,12,12
28501,-839,-2448,3024,20,5,8
28511,-860,-2459,3052,10,-9,-3
28521,-811,-2462,3042,20,-1,-24
28531,-782,-2472,3081,24,3,-11
28541,-779,-2427,3070,35,27,-25
28551,-795,-2396,3107,24,41,-38
28561,-831,-2345,3120,-21,38,-37
28571,-826,-2342,3100,-17,45,-38
28581,-824,-2392,3116,-25,29,-31
28591,-780,-2418,3124,-47,28,-36
28601,-770,-2428,3084,-62,30,-32
28612,-793,-2423,3055,-57,22,-20
28622,-788,-2445,3047,-46,16,-9
28632,-796,-2463,3036,-39,15,-7
28642,-788,-2484,3053,-39,17,1
28652,-787,-2477,3060,-30,11,-4
28662,-818,-2437,3066,-20,15,3
28672,-843,-2429,3056,-12,7,0
28682,-850,-2451,3051,-16,2,-6
28692,-827,-2471,3051,-1,-10,-8
28702,-795,-2450,3074,-10,-6,-9
28712,-791,-2435,3068,-19,0,-7
28722,-787,-2425,3080,-28,4,-6
28732,-808,-2429,3101,-38,10,-3
28742,-784,-2431,3061,-31,10,-2
28752,-790,-2430,3042,-28,7,3
28762,-775,-2442,3052,-12,-5,3
28772,-762,-2477,3050,-15,4,9
28782,-770,-2460,3033,-11,8,8
28792,-796,-2461,3031,5,10,15
28802,-818,-2474,3029,-3,5,10
28812,-827,-2475,3011,11,3,3
28822,-819,-2446,3086,24,-2,0
28832,-816,-2395,3099,13,0,-3
28842,-838,-2405,3067,5,-5,-6
28852,-836,-2456,3054,14,-9,-4
28863,-819,-2490,3029,12,-19,5
28873,-821,-2488,3033,32,-26,0
28883,-810,-2451,3055,38,-33,1
28893,-814,-2446,3085,49,-44,6
28903,-818,-2424,3119,34,-45,7
28913,-815,-2375,3154,18,-50,5
28923,-806,-2325,3140,-18,-47,-6
28933,-798,-2340,3097,-57,-47,-8
28943,-781,-2349,3063,-83,-36,-16
28953,-741,-2429,3020,-77,-19,-7
28963,-747,-2500,3026,-74,3,-1
28973,-760,-2501,2998,-71,19,-6
28983,-777,-2499,2998,-57,32,-2
28993,-803,-2472,3003,-32,30,1
29003,-799,-2472,3021,-18,30,-1
29013,-813,-2483,3045,-10,36,-4
29023,-804,-2487,3096,6,29,-10
29033,-814,-2474,3053,2,21,-8
29043,-819,-2458,3048,34,11,-12
29053,-812,-2453,3059,25,-1,-9
29063,-783,-2420,3077,31,1,-3
29073,-761,-2421,3070,10,10,-6
29083,-772,-2414,3083,4,22,-7
29093,-803,-2387,3109,-5,20,1
29103,-801,-2385,3090,-10,21,-1
29114,-803,-2404,3070,-12,10,1
29124,-786,-2439,3036,-10,11,8
29134,-803,-2474,3020,2,3,6
29144,-813,-2463,3043,7,7,-3
29154,-811,-2427,3103,0,6,-9
29164,-822,-2430,3068,-14,12,-17
29174,-819,-2468,3081,-15,8,-24
29184,-804,-2524,3076,-16,12,-28
29194,-785,-2491,3058,-2,13,-15
29204,-774,-2425,3062,1,9,-17
29214,-798,-2374,3081,-8,14,-17
29224,-814,-2399,3060,-21,9,-9
29234,-803,-2430,3033,-11,2,-3
29244,-783,-2472,3012,-1,3,-7
29254,-775,-2474,3029,20,4,-5
29264,-792,-2465,3011,37,-2,-3
29274,-824,-2471,3027,47,1,-2
29285,-829,-2477,3057,62,7,-11
29295,-821,-2425,3101,38,4,-20
29305,-810,-2369,3122,24,14,-31
29315,-825,-2333,3145,-8,16,-27
29325,-823,-2337,3148,-39,16,-40
29335,-798,-2400,3093,-47,12,-36
29345,-800,-2436,3042,-43,4,-28
29355,-792,-2481,2999,-8,-2,-24
29365,-775,-2502,3005,3,2,-16
29375,-785,-2504,3017,31,0,-11
29385,-778,-2466,3054,47,-3,3
29395,-795,-2439,3075,38,3,6
29405,-790,-2395,3099,35,-2,2
29415,-787,-2378,3124,16,-3,0
29425,-801,-2343,3115,-9,-5,7
29435,-801,-2375,3081,-29,-20,-5
29445,-797,-2452,3049,-18,-18,3
29456,-810,-2489,3052,-16,-17,-5
29466,-798,-2487,3062,-2,-22,3
29476,-814,-2452,3065,14,-32,12
29486,-840,-2449,3115,26,-46,16
29496,-828,-2418,3162,-2,-44,13
29506,-812,-2336,3193,-49,-38,4
29516,-796,-2332,3065,-67,-46,5
29526,-777,-2343,3048,-89,-32,-10
29536,-746,-2411,3027,-102,-8,-12
29546,-739,-2444,2993,-119,10,-13
29556,-743,-2497,2979,-90,28,-13
29566,-759,-2541,2962,-79,40,4
29576,-768,-2569,2985,-40,36,-3
29586,-783,-2522,3038,-5,25,-3
29596,-792,-2438,3041,13,14,8
29606,-835,-2381,3041,53,3,8
29617,-843,-2426,3060,50,-6,7
29627,-846,-2443,3054,36,-10,-5
29637,-815,-2483,3066,52,-6,-7
29647,-807,-2479,3116,37,-2,-10
29657,-794,-2396,3098,29,4,-13
29667,-817,-2338,3112,14,7,-17
29677,-786,-2328,3112,-13,13,-18
29687,-789,-2348,3097,-42,8,-18
29697,-774,-2439,3042,-47,11,-24
29707,-749,-2503,3059,-27,11,-20
29717,-764,-2492,3063,-32,16,-11
29727,-762,-2441,3046,-18,12,-4
29737,-792,-2432,3039,-11,13,2
29747,-796,-2439,3058,-15,18,-2
29757,-802,-2480,3040,-9,19,0
29767,-809,-2477,3068,-6,17,3
29777,-822,-2453,3055,-6,11,-6
29788,-808,-2429,3094,0,18,-14
29798,-815,-2418,3079,-17,11,-7
29808,-819,-2441,3081,-12,16,-16
29818,-809,-2460,3061,-7,5,-17
29828,-796,-2446,3053,-5,7,-17
29838,-785,-2475,3013,5,4,-20
29848,-789,-2490,3067,5,13,-22
29858,-789,-2461,3039,4,14,-24
29868,-793,-2408,3046,24,17,-23
29878,-799,-2391,3118,6,21,-21
29888,-811,-2379,3109,-14,10,-24
29898,-816,-2390,3085,-10,13,-22
29908,-787,-2424,3109,-26,1,-20
29918,-806,-2410,3094,-28,-10,-10
29928,-827,-2423,3102,-23,-24,2
29938,-828,-2438,3096,-36,-44,8
29948,-821,-2487,3059,-38,-63,9
29959,-781,-2494,3058,-28,-64,3
29969,-768,-2451,3054,-45,-49,5
29979,-776,-2399,3033,-69,-25,-15
29989,-753,-2413,3009,-59,-2,-23
29999,-762,-2449,3028,-88,24,-15
30009,-750,-2516,2947,-79,37,-21
30019,-762,-2539,2984,-44,39,-11
30029,-773,-2510,3042,-8,36,1
30039,-778,-2455,3050,16,20,4
30049,-796,-2427,3050,35,14,4
30059,-820,-2424,3056,41,-4,5
30069,-812,-2450,3061,40,2,9
30079,-803,-2486,3044,29,2,-6
30089,-777,-2441,3084,35,13,-8
30099,-788,-2398,3079,32,5,-8
30109,-814,-2362,3097,7,18,-12
30120,-840,-2383,3105,-37,22,-22
30130,-815,-2433,3060,-35,14,-24
30140,-812,-2486,3044,-32,12,-21
30150,-785,-2508,3026,-33,13,-34
30160,-785,-2490,3018,-14,13,-31
30170,-778,-2467,3030,2,20,-23
30180,-785,-2455,3041,10,27,-20
30190,-777,-2465,3051,25,27,-23
30200,-785,-2448,3088,14,24,-15
30210,-787,-2425,3103,18,21,-18
30220,-796,-2395,3079,7,21,-12
30230,-822,-2390,3070,-10,19,-14
30240,-816,-2432,3052,-11,12,-13
30250,-792,-2490,3047,-13,8,-9
30260,-789,-2473,3029,-8,11,-16
30271,-808,-2422,3063,-7,7,-1
30281,-815,-2426,3074,-6,3,-5
30291,-807,-2457,3050,-12,6,-4
30301,-795,-2482,3051,-6,-2,-2
30311,-794,-2483,3048,7,-2,-1
30321,-803,-2467,3049,10,-7,1
30331,-813,-2438,3045,6,-4,0
30341,-801,-2418,3053,3,-8,1
30351,-792,-2426,3065,0,-4,-2
30361,-799,-2418,3090,-12,-6,2
30371,-798,-2418,3080,-9,-8,6
30381,-789,-2408,3078,-21,-6,4
30391,-807,-2378,3115,-42,-7,1
30401,-803,-2371,3064,-52,-10,11
30412,-798,-2425,3062,-45,-6,5
30422,-800,-2473,3034,-41,-8,-1
30432,-803,-2515,3033,-42,-5,2
30442,-792,-2507,3035,-24,-7,-2
30452,-807,-2485,3022,-8,-11,5
30462,-817,-2447,3059,1,-9,8
30472,-809,-2448,3043,-3,-10,0
30482,-801,-2468,3050,5,-9,-1
30492,-786,-2444,3059,-2,-7,1
30502,-804,-2423,3065,-9,-5,3
30512,-799,-2421,3085,-12,-11,-5
30522,-786,-2434,3079,-33,-5,4
30532,-781,-2433,3036,-31,-5,-4
30542,-792,-2457,3048,-24,-5,-1
30553,-792,-2481,3054,-27,-6,3
30563,-798,-2463,3056,-29,-3,-2
30573,-794,-2457,3043,-23,-6,-4
30583,-802,-2450,3068,-13,-8,-3
30593,-808,-2428,3089,-28,-4,3
30603,-795,-2387,3059,-40,-11,7
30613,-789,-2394,3159,-40,-9,16
30623,-795,-2371,3082,-57,-18,21
30633,-792,-2434,3023,-72,-20,35
30643,-788,-2511,3026,-69,-19,40
30653,-773,-2510,3025,-48,-11,33
30663,-786,-2513,3043,-49,-12,44
30673,-805,-2500,3055,-48,-10,37
30683,-820,-2453,3036,-33,-23,33
30693,-827,-2469,3034,-26,-22,43
30704,-791,-2453,3012,-22,-34,34
30714,-780,-2482,2997,-1,-27,34
30724,-783,-2491,3049,-3,-23,33
30734,-796,-2507,3042,-5,-25,29
30744,-823,-2473,3058,-7,-24,28
30754,-831,-2450,3049,-12,-37,25
30764,-817,-2405,3105,-23,-41,23
30774,-821,-2400,3057,-47,-35,12
30784,-801,-2452,3032,-63,-29,-5
30794,-801,-2512,3018,-66,-32,-4
30804,-791,-2499,2920,-38,-27,-13
30814,-778,-2516,2994,12,-13,-9
30824,-769,-2489,3026,-5,0,-4
30834,-764,-2489,2976,-5,7,-7
30845,-779,-2505,3022,-1,17,-5
30855,-785,-2478,3024,8,17,-4
30865,-791,-2442,3083,10,12,-6
30875,-817,-2431,3056,4,15,-6
30885,-838,-2427,3048,0,5,-4
30895,-811,-2425,3063,6,-1,-3
30905,-795,-2451,3030,13,-2,5
30915,-789,-2471,3054,17,0,-1
30925,-783,-2479,3063,8,2,-6
30935,-793,-2466,3077,3,6,-4
30945,-808,-2451,3059,1,12,3
30955,-808,-2433,3048,9,-8,-2
30965,-791,-2437,3053,4,1,3
30975,-784,-2454,3026,5,-6,1
30986,-780,-2469,3038,1,-3,1
30996,-797,-2459,3067,-6,0,2
31006,-791,-2452,3069,-18,5,1
31016,-795,-2444,3048,-20,0,0
31026,-782,-2443,3066,-16,1,0
31036,-765,-2439,3023,-21,0,3
31046,-760,-2445,3037,-17,-1,9
31056,-785,-2456,3032,-3,-4,21
31066,-814,-2473,3052,5,-7,19
31076,-826,-2459,3061,10,-11,25
31086,-836,-2418,3083,-5,-7,12
31096,-829,-2403,3089,-32,-3,4
31106,-820,-2425,3090,-59,-8,16
31116,-836,-2505,2991,-64,-11,16
31127,-819,-2565,2988,-18,-19,9
31137,-807,-2532,3012,7,-21,12
31147,-810,-2448,3016,16,-30,18
31157,-801,-2423,3045,32,-20,15
31167,-814,-2427,3046,12,-19,6
31177,-792,-2465,3052,9,-11,1
31187,-778,-2467,3063,2,-7,3
31197,-779,-2430,3046,5,0,4
31207,-792,-2431,3074,-5,2,-4
31217,-806,-2437,3057,-33,1,-3
31227,-807,-2462,3056,-16,-6,-5
31237,-802,-2470,3050,-22,-11,-2
31247,-789,-2453,3028,-8,-7,-12
31257,-788,-2444,3031,-15,-10,-4
31267,-789,-2451,3047,-21,-3,-10
31277,-788,-2459,3028,-18,-8,-12
31287,-771,-2451,3045,-15,-5,-9
31298,-777,-2456,3032,-13,-3,1
31308,-792,-2450,3049,-9,3,0
31318,-793,-2440,3052,-13,-4,13
31328,-805,-2428,3071,-10,1,20
31338,-822,-2424,3076,-24,-4,21
31348,-851,-2460,3049,-31,-2,6
31358,-860,-2496,3022,-19,-13,2
31368,-856,-2501,3029,-16,-16,-7
31378,-837,-2492,3013,-8,-16,-10
31388,-790,-2480,3043,-11,-13,-14
31398,-769,-2433,3061,-5,-4,-11
31408,-754,-2389,3066,-17,2,-4
31418,-758,-2389,3068,-22,4,-1
31428,-783,-2420,3045,-24,2,6
31438,-806,-2500,2973,-6,-9,19
31448,-814,-2607,2953,52,-27,27
31458,-792,-2607,2987,99,-35,20
31469,-782,-2512,3109,98,-29,15
31479,-807,-2393,3095,91,-29,3
31489,-846,-2332,3142,66,-27,0
31499,-871,-2355,3141,20,-31,-9
31509,-832,-2379,3146,-31,-34,-22
31519,-768,-2374,3064,-53,-35,-37
31529,-757,-2395,3072,-58,-19,-23
31539,-765,-2415,3018,-82,-3,-34
31549,-733,-2459,2987,-81,4,-33
31559,-738,-2487,2950,-80,8,-15
31569,-744,-2533,2959,-43,10,-6
31579,-778,-2543,3001,-32,12,-2
31589,-786,-2492,3023,1,0,5
31599,-804,-2430,3045,19,-4,8
31609,-810,-2397,3056,28,-9,7
31619,-843,-2392,3051,17,-3,8
31629,-828,-2454,3064,-4,8,0
31640,-826,-2497,3091,-35,17,-4
31650,-814,-2463,3053,-19,13,-18
31660,-817,-2455,3057,4,7,-5
31670,-800,-2466,3072,-15,9,-10
31680,-766,-2443,3061,-36,11,-18
31690,-757,-2425,3047,-34,9,-14
31700,-757,-2421,3046,-16,17,-5
31710,-768,-2444,3066,-24,4,7
31720,-758,-2428,3046,-16,-3,21
31730,-757,-2437,3061,-5,2,32
31740,-783,-2455,3064,-2,-1,31
31750,-820,-2462,3053,10,-8,32
31760,-812,-2483,3057,7,-10,26
31770,-813,-2492,3038,11,-11,20
31780,-816,-2470,3059,9,-6,10
31790,-820,-2469,3090,-5,-6,0
31800,-827,-2442,3078,-18,-7,-12
31811,-825,-2456,3033,-22,-14,-7
31821,-792,-2485,3027,-15,-13,-11
31831,-756,-2497,3008,-6,-11,-8
31841,-716,-2474,3002,15,-7,-1
31851,-727,-2430,3045,29,-6,18
31861,-745,-2413,3045,22,-5,21
31871,-789,-2439,3059,19,1,29
31881,-803,-2451,3062,3,2,30
31891,-832,-2450,3120,11,1,28
31901,-864,-2420,3084,4,-15,32
31911,-865,-2438,3068,-5,-20,13
31921,-827,-2459,3063,-22,-24,-2
31931,-809,-2466,3070,-27,-13,-9
31941,-787,-2428,3074,-21,-14,-10
31951,-777,-2397,3076,-25,-11,-7
31961,-766,-2381,3028,-38,-7,-4
31971,-745,-2425,3035,-32,2,11
31982,-750,-2460,3015,-16,4,11
31992,-791,-2473,3024,-17,0,17
32002,-834,-2457,3052,-2,-6,22
32012,-846,-2464,3043,7,-12,17
32022,-832,-2473,3040,-8,-19,3
32032,-799,-2479,3050,-7,-17,-10
32042,-800,-2481,3042,-6,-22,-8
32052,-794,-2443,3054,2,-18,-1
32062,-766,-2380,3094,-2,-31,11
32072,-742,-2320,3202,-9,-43,30
32082,-761,-2295,3134,-8,-74,42
32092,-767,-2352,3122,-36,-89,71
32102,-749,-2451,3081,-62,-92,83
32112,-757,-2545,3005,-67,-81,93
32122,-781,-2624,2971,-25,-78,118
32132,-820,-2600,2977,18,-81,134
32142,-854,-2524,2966,45,-88,135
32152,-876,-2457,2949,79,-97,120
32162,-905,-2462,2999,111,-98,106
32172,-889,-2499,3057,87,-91,75
32182,-809,-2440,3105,86,-80,51
32193,-778,-2354,3145,74,-72,52
32203,-747,-2258,3155,46,-62,35
32213,-740,-2194,3154,6,-46,28
32223,-750,-2239,3108,-33,-27,12
32233,-742,-2396,3075,-69,-18,15
32243,-758,-2522,3034,-55,-13,7
32253,-756,-2533,3050,-18,-4,5
32263,-769,-2489,3077,-15,-8,10
32273,-813,-2443,3048,-9,-2,12
32283,-820,-2439,3020,-8,0,11
32293,-788,-2453,3057,2,-6,10
32303,-765,-2437,3099,12,-5,2
32313,-780,-2420,3089,15,3,8
32323,-806,-2442,3074,8,4,4
32333,-806,-2406,3082,6,8,4
32343,-813,-2390,3089,11,7,9
32353,-814,-2405,3082,14,-8,16
32363,-817,-2405,3093,10,-12,17
32373,-817,-2404,3077,11,-8,15
32383,-800,-2401,3115,7,-12,25
32393,-802,-2381,3123,10,-11,29
32403,-845,-2407,3084,-2,-25,30
32413,-829,-2451,3069,2,-40,16
32423,-810,-2504,3055,12,-44,12
32433,-788,-2504,3041,26,-42,7
32443,-727,-2462,3050,42,-26,1
32453,-730,-2367,3094,42,-15,0
32463,-754,-2302,3141,28,-10,5
32473,-767,-2316,3128,27,-15,4
32483,-781,-2365,3108,-6,-10,12
32493,-799,-2407,3092,-12,-2,6
32503,-804,-2421,3092,-22,7,7
32513,-823,-2395,3133,-24,-2,13
32523,-823,-2409,3070,-20,-10,11
32533,-814,-2428,3060,-6,-20,7
32543,-782,-2446,3088,-7,-20,10
32553,-770,-2407,3065,4,-19,11
32563,-783,-2386,3122,1,-16,14
32573,-798,-2368,3099,-25,-17,9
32583,-770,-2364,3082,-30,-11,12
32593,-766,-2405,3080,-31,0,10
32603,-782,-2428,3082,-27,-2,13
32613,-792,-2414,3077,-9,2,18
32623,-808,-2405,3098,0,-5,16
32633,-814,-2395,3094,-4,-13,18
32643,-809,-2391,3119,-13,-15,15
32653,-801,-2392,3086,-26,-15,11
32663,-786,-2397,3075,-22,-8,15
32673,-809,-2413,3087,-25,-9,9
32683,-798,-2427,3078,-18,-10,7
32693,-782,-2429,3071,-18,-10,6
32703,-788,-2403,3089,-2,-12,3
32713,-786,-2392,3076,-18,-16,0
32723,-802,-2405,3067,-13,-12,3
32733,-784,-2418,3081,-12,-9,0
32743,-787,-2433,3085,-4,-2,-1
32753,-805,-2414,3088,0,-2,-2
32763,-812,-2397,3108,-9,-4,-1
32773,-813,-2381,3106,-16,-5,-2
32783,-804,-2390,3108,-21,-13,0
32793,-792,-2394,3081,-16,-7,-4
32803,-774,-2406,3063,-25,-11,4
32813,-770,-2426,3071,-9,-6,1
32823,-783,-2418,3095,-13,-8,-1
32833,-807,-2425,3095,-5,-3,6
32843,-782,-2386,3089,-5,-7,6
32853,-785,-2398,3095,-5,-6,4
32863,-798,-2406,3101,-5,-6,4
32873,-804,-2392,3096,0,-11,8
32883,-805,-2399,3087,-7,-9,3
32893,-815,-2406,3076,-13,-12,-9
32903,-800,-2416,3087,-19,-10,-14
32913,-801,-2422,3083,-15,-6,-10
32923,-783,-2413,3080,-5,-3,-8
32933,-773,-2427,3075,-2,2,-6
32943,-792,-2421,3080,0,-2,-9
32953,-779,-2401,3092,2,-3,1
32963,-760,-2372,3101,-2,-6,4
32973,-768,-2362,3120,-6,1,4
32983,-797,-2366,3100,-21,3,2
32993,-797,-2392,3118,-29,0,1
33003,-801,-2422,3097,-31,1,-8
33013,-798,-2438,3082,-27,1,0
33023,-790,-2441,3067,-16,-2,-2
33033,-794,-2447,3069,-10,-2,-8
33043,-787,-2428,3055,-7,0,-11
33053,-780,-2413,3078,0,-6,-8
33063,-779,-2409,3090,11,-12,-4
33073,-766,-2408,3092,13,-7,2
33083,-763,-2400,3099,0,-2,5
33093,-789,-2388,3108,-21,3,-3
33103,-790,-2395,3077,-12,-1,-1
33113,-783,-2394,3101,-9,-2,2
33123,-799,-2401,3097,-19,-6,1
33133,-790,-2418,3075,-16,-2,-7
33143,-794,-2400,3073,-17,2,2
33154,-797,-2401,3098,-26,3,-1
33164,-803,-2393,3107,-25,1,-4
33174,-820,-2405,3056,-17,-9,3
33184,-811,-2442,3068,-9,-15,-3
33194,-802,-2452,3082,-13,-13,-8
33204,-768,-2434,3081,-8,-9,3
33214,-773,-2420,3089,-12,-8,-4
33224,-782,-2372,3084,-11,-7,-4
33234,-787,-2372,3074,-21,-4,-7
33244,-775,-2398,3104,-26,2,-7
33254,-783,-2415,3099,-39,2,-3
33264,-761,-2408,3076,-30,0,-7
33274,-790,-2404,3092,0,2,11
33284,-804,-2411,3103,-10,0,8
33294,-780,-2389,3098,-24,2,3
33304,-799,-2390,3082,-24,-1,0
33314,-806,-2418,3069,-15,-7,-3
33324,-802,-2451,3086,-13,-3,-1
33334,-810,-2452,3102,-15,-6,1
33344,-769,-2418,3077,-15,-9,-5
33355,-776,-2380,3088,-17,-13,-1
33365,-774,-2381,3077,-10,-14,-6
33375,-767,-2429,3091,-3,-8,-1
33385,-769,-2469,3091,-7,-7,2
33395,-764,-2454,3074,-6,1,-7
33405,-790,-2386,3082,-1,-2,-2
33415,-793,-2360,3085,-9,2,-2
33425,-808,-2376,3076,-14,-5,-2
33435,-797,-2392,3103,-16,-6,-4
33445,-774,-2415,3084,-9,-1,-2
33455,-790,-2442,3088,-4,2,4
33465,-795,-2424,3063,-11,-6,0
33475,-784,-2387,3077,-7,-6,-1
33485,-778,-2390,3074,-13,-5,3
33495,-771,-2397,3071,-16,-9,3
33505,-783,-2437,3075,-10,-4,0
33515,-783,-2444,3077,-17,0,7
33525,-792,-2427,3078,-15,1,5
33535,-802,-2410,3071,-2,-3,2
33545,-795,-2396,3073,-7,-13,5
33556,-800,-2410,3069,-3,-5,10
33566,-786,-2409,3109,-9,-4,7
33576,-800,-2416,3113,-19,-7,1
33586,-804,-2405,3092,-14,-5,1
33596,-797,-2415,3083,-16,-6,3
33606,-786,-2417,3071,-17,-9,1
33616,-767,-2438,3055,-9,-8,-3
33626,-772,-2440,3067,-9,-6,-1
33636,-771,-2428,3080,-14,-1,-3
33646,-774,-2398,3089,-7,-2,5
33656,-802,-2393,3067,-2,0,-3
33666,-796,-2411,3072,-8,-1,2
33676,-800,-2414,3103,-12,-2,6
33686,-793,-2442,3088,-15,-7,0
33696,-799,-2411,3106,-18,-4,-1
33706,-806,-2412,3072,-9,-8,0
33716,-804,-2426,3089,-9,-14,-6
33726,-774,-2422,3065,-14,-13,-9
33736,-771,-2424,3075,-16,-7,-4
33746,-763,-2413,3093,-8,0,0
33757,-768,-2416,3121,-2,-4,-1
33767,-759,-2412,3125,-13,-1,3
33777,-778,-2392,3090,-20,-6,7
33787,-780,-2404,3083,-6,-8,-4
33797,-777,-2413,3098,-28,-8,6
33807,-797,-2411,3074,-27,-1,-9
33817,-790,-2416,3096,-16,-6,1
33827,-793,-2419,3080,-18,-5,-2
33837,-777,-2427,3063,-20,-2,-3
33847,-779,-2435,3069,-18,-1,-4
33857,-770,-2435,3083,-11,4,0
33867,-767,-2422,3079,-13,5,5
33877,-773,-2413,3062,-21,9,5
33887,-771,-2413,3114,-21,18,5
33897,-779,-2410,3093,-42,16,6
33907,-795,-2413,3081,-32,17,2
33917,-800,-2423,3070,-27,14,-2
33927,-783,-2414,3105,-43,22,-2
33937,-817,-2411,3068,-57,12,-2
33947,-828,-2433,3071,6,0,-9
33958,-788,-2468,3061,-1,-5,7
33968,-775,-2452,3035,8,-1,4
33978,-762,-2425,3067,18,6,7
33988,-783,-2402,3117,13,9,12
33998,-809,-2387,3110,4,4,11
34008,-793,-2406,3084,3,-4,7
34018,-789,-2396,3091,-4,-1,5
34028,-784,-2419,3098,-21,-3,-1
34038,-792,-2399,3063,-13,0,-2
34048,-803,-2418,3035,-8,0,7
34058,-796,-2456,3066,4,-1,5
34068,-786,-2453,3073,10,0,5
34078,-796,-2445,3076,16,-4,4
34088,-780,-2402,3087,23,-7,10
34098,-794,-2391,3122,11,-5,7
34108,-793,-2391,3094,-10,0,4
34118,-795,-2376,3082,-18,-3,2
34128,-795,-2400,3092,-30,3,-4
34138,-795,-2399,3088,-35,3,0
34148,-792,-2409,3086,-35,-2,0
34159,-800,-2394,3072,-28,-4,-4
34169,-790,-2414,3058,-6,0,0
34179,-820,-2483,3063,-24,-7,3
34189,-793,-2482,3066,-12,-10,-9
34199,-778,-2429,3094,4,-8,-1
34209,-788,-2413,3109,0,-2,11
34219,-802,-2411,3091,-12,-1,-7
34229,-800,-2410,3079,-23,-6,-10
34239,-793,-2407,3102,-20,-10,3
34249,-808,-2401,3082,-16,-8,4
34259,-799,-2412,3104,-14,-15,-1
34269,-784,-2428,3069,-7,-36,-1
34279,-793,-2459,3074,-14,-30,1
34289,-792,-2407,3139,-17,-43,-3
34299,-803,-2386,3072,-16,-46,-15
34309,-801,-2426,3098,-22,-50,-7
34319,-778,-2397,3039,-28,-38,-22
34329,-747,-2395,3040,-22,-27,-13
34339,-737,-2419,3070,-48,0,-4
34349,-759,-2419,3051,-51,20,-19
34360,-759,-2424,3048,-45,24,-3
34370,-786,-2443,3026,-38,30,0
34380,-793,-2450,3062,-29,22,0
34390,-786,-2423,3076,-17,18,13
34400,-798,-2405,3079,3,6,13
34410,-809,-2402,3079,18,-2,9
34420,-820,-2428,3090,4,-5,15
34430,-814,-2450,3019,18,-12,-4
34440,-761,-2469,3064,34,-13,-1
34450,-755,-2457,3107,33,-8,9
34460,-763,-2371,3113,21,-3,11
34470,-769,-2324,3119,15,-4,22
34480,-807,-2327,3114,5,-10,25
34490,-799,-2369,3094,-2,-11,22
34500,-787,-2438,3119,-12,-12,21
34510,-783,-2434,3105,-30,4,15
34520,-795,-2427,3109,-20,2,15
34530,-804,-2405,3123,-31,9,15
34540,-814,-2408,3084,-48,3,9
34550,-810,-2443,3029,-44,-12,9
34561,-804,-2531,2962,-14,-14,10
34571,-796,-2562,2978,34,-23,12
34581,-789,-2506,3071,54,-10,14
34591,-782,-2367,3118,48,-5,7
34601,-809,-2291,3120,34,-1,6
34611,-824,-2341,3105,12,-7,1
34621,-805,-2400,3083,-4,-7,6
34631,-774,-2448,3096,9,-8,9
34641,-767,-2425,3100,17,0,18
34651,-794,-2419,3086,23,-6,14
34661,-807,-2429,3075,24,-8,12
34671,-828,-2471,3094,53,-29,15
34681,-815,-2415,3050,33,-34,0
34691,-804,-2402,3106,43,-32,-2
34701,-817,-2402,3093,12,-35,-15
34711,-784,-2393,3128,-8,-22,-26
34721,-756,-2362,3096,-17,-22,-34
34731,-750,-2347,3149,-40,-5,-17
34741,-782,-2342,3089,-48,2,-18
34751,-763,-2384,3065,-38,-1,-9
34762,-779,-2433,3024,-34,1,7
34772,-776,-2447,3037,-13,-3,10
34782,-777,-2440,3059,-11,-2,10
34792,-773,-2408,3059,5,1,9
34802,-798,-2421,3130,7,11,-2
34812,-815,-2412,3098,4,4,6
34822,-809,-2357,3141,13,-1,1
34832,-788,-2381,3108,-1,-6,3
34842,-789,-2383,3068,-21,-9,-8
34852,-764,-2410,3101,-8,4,-6
34862,-771,-2412,3115,-23,10,9
34872,-779,-2401,3118,-38,16,-2
34882,-794,-2371,3098,-36,22,-3
34892,-804,-2395,3106,-38,13,3
34902,-795,-2393,3088,-49,12,-4
34912,-780,-2414,3071,-46,14,-10
34922,-799,-2455,3079,-36,14,-7
34932,-796,-2457,3055,-30,9,-6
34942,-797,-2451,3052,-3,5,-1
34952,-785,-2422,3083,11,2,-1
34963,-780,-2417,3091,21,1,1
34973,-783,-2428,3121,7,0,-3
34983,-789,-2388,3108,-4,2,-5
34993,-780,-2372,3124,-22,11,-7
35003,-799,-2351,3093,-45,15,-15
35013,-812,-2394,3067,-51,9,-17
35023,-815,-2424,3098,-53,6,-10
35033,-794,-2444,3051,-35,-3,-11
35043,-788,-2448,3054,-18,-8,-2
35053,-769,-2391,3078,-15,-8,4
35063,-786,-2407,3080,-11,-6,3
35073,-811,-2417,3050,0,-13,1
35083,-805,-2441,3068,24,-10,5
35093,-794,-2475,3083,16,-5,4
35103,-795,-2450,3066,8,2,2
35113,-817,-2407,3084,10,4,0
35123,-821,-2360,3107,-4,2,-14
35133,-780,-2364,3115,-29,5,-11
35143,-791,-2371,3099,-43,-4,-13
35153,-755,-2405,3117,-28,1,-11
35164,-757,-2435,3084,-44,4,-20
35174,-774,-2420,3055,-7,-11,-8
35184,-798,-2434,3070,1,-3,-6
35194,-798,-2416,3062,8,-9,4
35204,-796,-2427,3089,10,-5,13
35214,-816,-2402,3104,0,-6,6
35224,-823,-2366,3116,-4,-6,0
35234,-810,-2339,3134,-22,-19,6
35244,-819,-2355,3086,-29,-16,3
35254,-797,-2408,3064,-46,-15,0
35264,-784,-2446,3067,-37,-16,-5
35274,-788,-2453,3061,-20,-10,-2
35284,-788,-2482,3056,-8,-12,0
35294,-785,-2446,3067,-2,-16,-3
35304,-769,-2413,3087,8,-23,1
35314,-746,-2391,3099,3,-19,0
35324,-761,-2392,3100,0,-21,5
35334,-781,-2403,3111,0,-21,6
35344,-795,-2391,3121,-8,-23,8
35354,-790,-2365,3075,-21,-30,4
35365,-796,-2404,3090,-6,-34,9
35375,-793,-2439,3104,-9,-38,9
35385,-781,-2436,3056,-11,-34,-3
35395,-764,-2441,3092,-1,-23,3
35405,-777,-2433,3088,-39,-12,2
35415,-798,-2419,3061,-32,2,-10
35425,-798,-2395,3048,-26,0,-5
35435,-791,-2400,3046,-33,1,-1
35445,-788,-2420,3041,-40,11,-1
35455,-784,-2440,3022,-40,18,1
35465,-775,-2461,3041,-16,17,6
35475,-798,-2457,3084,12,10,0
35485,-798,-2448,3097,18,1,3
35495,-793,-2423,3076,28,1,4
35505,-772,-2368,3095,14,-6,-6
35515,-765,-2370,3096,19,-1,-13
35525,-778,-2370,3135,-5,3,-2
35535,-787,-2375,3078,-21,-2,-4
35545,-763,-2408,3100,-16,-3,-9
35555,-750,-2398,3072,-19,-8,-12
35566,-744,-2403,3067,-17,-5,-3
35576,-743,-2430,3078,-40,13,2
35586,-789,-2451,3082,-20,14,2
35596,-819,-2471,3066,5,15,7
35606,-824,-2471,3067,8,0,-1
35616,-823,-2434,3062,9,8,-2
35626,-799,-2399,3101,-2,8,-8
35636,-792,-2369,3101,-17,7,-8
35646,-807,-2349,3105,-23,4,-5
35656,-790,-2379,3111,-43,13,-12
35666,-770,-2379,3098,-54,9,-6
35676,-788,-2402,3082,-32,-2,0
35686,-774,-2436,3078,-20,-3,9
35696,-792,-2449,3038,4,-11,8
35706,-779,-2450,3078,6,-7,6
35716,-789,-2429,3077,13,-10,4
35726,-791,-2431,3085,10,-3,2
35736,-793,-2411,3080,7,-5,-8
35746,-784,-2428,3097,0,-4,-12
35756,-779,-2432,3080,-9,2,-14
35767,-769,-2427,3074,-2,4,-12
35777,-777,-2411,3082,-10,1,-8
35787,-751,-2401,3044,-12,-2,-2
35797,-745,-2385,3053,-9,1,-2
35807,-755,-2407,3090,-21,19,8
35817,-803,-2389,3076,-24,19,5
35827,-841,-2421,3105,-11,11,6
35837,-848,-2436,3102,-14,1,-2
35847,-825,-2433,3091,-12,-6,-6
35857,-806,-2424,3105,-16,-4,-1
35867,-807,-2405,3087,-30,2,-8
35877,-795,-2400,3105,-31,6,-10
35887,-793,-2401,3063,-30,-8,0
35897,-783,-2407,3052,-22,-11,1
35907,-776,-2408,3060,-20,-13,8
35917,-793,-2404,3071,-8,-13,12
35927,-807,-2394,3098,-22,-17,11
35937,-816,-2423,3065,-20,-19,11
35947,-775,-2483,3086,-6,-20,8
35957,-776,-2468,3098,-11,-20,9
35968,-783,-2410,3121,-12,-22,-2
35978,-804,-2371,3096,-39,-14,-8
35988,-800,-2368,3094,-41,-24,-11
35998,-768,-2408,3149,-57,-31,-21
36008,-738,-2418,3023,-52,-30,-16
36018,-697,-2466,2997,-6,-31,1
36028,-716,-2511,3035,-2,-21,14
36038,-765,-2493,3074,9,-10,8
36048,-817,-2448,3089,19,-4,10
36058,-848,-2432,3111,19,-18,11
36068,-849,-2392,3094,3,-25,-5
36078,-830,-2400,3109,-1,-31,-9
36088,-809,-2391,3113,-22,-24,-7
36098,-791,-2385,3076,-44,-18,-14
36108,-756,-2366,3069,-46,-11,-17
36118,-740,-2381,3099,-59,0,3
36128,-725,-2415,3047,-76,7,-1
36138,-727,-2441,3032,-56,10,4
36148,-775,-2469,3037,-45,8,22
36158,-797,-2488,3036,-32,8,22
36169,-792,-2518,3036,-21,13,14
36179,-779,-2509,3023,-7,13,13
36189,-797,-2472,3025,3,24,-1
36199,-808,-2440,3031,5,14,-9
36209,-801,-2434,3104,6,17,-13
36219,-816,-2433,3099,-15,14,-20
36229,-767,-2408,3114,-10,11,-30
36239,-741,-2389,3098,-30,10,-17
36249,-745,-2384,3100,-37,9,-19
36259,-728,-2398,3070,-42,6,-7
36269,-736,-2430,3032,-24,3,1
36279,-754,-2453,3008,-17,4,9
36289,-805,-2467,3018,7,-2,16
36299,-791,-2456,3063,22,-2,13
36309,-841,-2431,3111,9,1,13
36319,-868,-2447,3106,-7,1,-1
36329,-888,-2464,3077,-21,-2,-17
36339,-847,-2441,3114,-30,-12,-31
36349,-793,-2415,3078,-47,-6,-36
36359,-769,-2400,3062,-35,-12,-33
36370,-782,-2425,3046,-18,-17,-26
36380,-734,-2469,3038,-10,-18,-21
36390,-708,-2474,3061,-6,-12,-9
36400,-708,-2448,3073,6,-8,6
36410,-765,-2452,3067,25,-2,20
36420,-790,-2459,3054,24,-5,16
36430,-790,-2435,3070,21,-17,14
36440,-785,-2403,3098,9,-13,6
36450,-794,-2398,3108,-10,-16,-8
36460,-795,-2441,3118,-25,-15,-15
36470,-801,-2431,3076,-41,-26,-24
36480,-768,-2412,3083,-22,-32,-20
36490,-744,-2402,3040,-44,-27,-27
36500,-721,-2387,3008,-52,-17,-29
36510,-689,-2471,2992,-60,-3,-2
36520,-710,-2513,2916,-60,16,12
36530,-720,-2542,2997,14,34,1
36540,-749,-2499,3026,36,40,11
36550,-814,-2478,2996,79,61,-1
36560,-879,-2519,3018,60,42,-28
36571,-878,-2503,3028,92,23,-53
36581,-838,-2435,3095,76,15,-62
36591,-796,-2362,3166,58,7,-68
36601,-796,-2299,3243,3,17,-75
36611,-767,-2219,3202,-10,22,-79
36621,-739,-2175,3146,-99,31,-74
36631,-755,-2341,2987,-58,31,-72
36641,-799,-2650,3047,-74,24,-82
36651,-742,-2722,3240,-61,-1,-157
36661,-760,-2636,3323,-35,-37,-220
36671,-937,-2544,3244,-40,-45,-226
36681,-1133,-2447,3000,-17,-83,-321
36691,-1030,-2413,2959,-21,-86,-345
36701,-928,-2470,2801,-34,-63,-357
36711,-780,-2503,2922,-37,-29,-383
36721,-679,-2600,2998,25,4,-338
36731,-606,-2618,3043,29,7,-286
36741,-474,-2467,2992,106,-4,-245
36751,-429,-2416,3052,153,14,-182
36761,-415,-2387,3000,126,26,-158
36772,-456,-2438,3048,156,40,-150
36782,-543,-2444,3156,157,34,-129
36792,-713,-2390,3170,181,16,-105
36802,-782,-2370,3258,130,-12,-81
36812,-734,-2347,3229,101,-39,-59
36822,-687,-2363,3193,35,-49,-58
36832,-673,-2383,3007,63,-68,-69
36842,-667,-2499,2991,132,-46,-62
36852,-613,-2632,2943,153,-25,-72
36862,-560,-2634,3099,208,0,-67
36872,-611,-2501,3176,211,8,-74
36882,-680,-2266,3240,198,7,-74
36892,-698,-2092,3308,141,-20,-56
36902,-626,-1985,3300,-4,-28,-69
36912,-592,-2148,3079,-28,-17,-73
36922,-575,-2452,3071,-37,0,-59
36932,-569,-2588,2959,-4,19,-73
36942,-596,-2582,2968,77,48,-73
36952,-657,-2570,2976,158,48,-56
36962,-703,-2512,3134,190,36,-38
36973,-652,-2338,3278,168,-2,-49
36983,-636,-2216,3226,126,-28,-37
36993,-591,-2226,3229,77,-32,-27
37003,-578,-2291,3160,26,-21,-20
37013,-596,-2423,3058,37,-3,-27
37023,-616,-2520,3067,89,13,-30
37033,-654,-2490,3109,117,15,-39
37043,-684,-2381,3143,135,18,-58
37053,-704,-2301,3259,114,6,-58
37063,-704,-2184,3293,54,-12,-55
37073,-624,-2150,3372,-14,-24,-45
37083,-580,-2184,3249,-93,-29,-26
37093,-521,-2324,3157,-121,-18,-20
37103,-518,-2428,3046,-71,-31,-5
37113,-516,-2443,3056,-7,-17,4
37123,-526,-2394,3059,34,-10,22
37133,-561,-2399,3142,56,14,13
37143,-611,-2415,3221,49,12,13
37153,-634,-2366,3234,36,7,8
37163,-661,-2306,3210,22,0,-6
37174,-681,-2368,3140,25,7,1
37184,-648,-2406,3222,12,1,-5
37194,-616,-2328,3242,13,-9,-6
37204,-633,-2229,3260,-13,-12,-3
37214,-659,-2211,3189,-49,-28,6
37224,-621,-2359,3126,-54,-25,13
37234,-550,-2463,3075,-46,-14,3
37244,-524,-2501,3007,31,13,-4
37254,-608,-2521,3057,61,42,-10
37264,-692,-2489,3102,117,49,-14
37274,-694,-2409,3226,142,39,-25
37284,-640,-2257,3326,95,15,-32
37294,-632,-2132,3342,49,4,-32
37304,-659,-2136,3356,-24,-10,-14
37314,-626,-2221,3243,-76,-34,-13
37324,-571,-2347,3171,-55,-51,13
37334,-552,-2400,3094,-22,-52,17
37344,-565,-2360,3102,20,-49,13
37354,-604,-2383,3158,35,-30,13
37364,-674,-2465,3148,46,-35,11
37375,-630,-2486,3300,86,-54,26
37385,-621,-2367,3265,93,-77,50
37395,-617,-2212,3277,34,-74,34
37405,-585,-2142,3197,-15,-43,22
37415,-596,-2159,3153,-83,-14,3
37425,-519,-2228,3154,-128,23,-6
37435,-547,-2299,3046,-171,34,-9
37445,-553,-2386,3038,-160,36,-34
37455,-577,-2452,3061,-114,38,-20
37465,-589,-2435,3140,-67,30,0
37475,-582,-2299,3166,-38,12,8
37485,-571,-2254,3180,-21,13,36
37495,-625,-2244,3167,-66,-4,21
37505,-625,-2272,3141,-56,-4,32
37515,-612,-2285,3184,-65,-6,51
37525,-576,-2263,3137,-82,2,55
37535,-555,-2332,3101,-75,7,92
37545,-534,-2426,3129,-36,27,109
37555,-561,-2493,3170,-12,58,119
37565,-571,-2425,3141,18,57,125
37576,-620,-2390,3176,21,50,144
37586,-630,-2328,3191,17,41,139
37596,-611,-2358,3209,7,49,128
37606,-656,-2431,3266,-14,39,143
37616,-690,-2409,3225,-17,21,141
37626,-718,-2371,3209,-9,9,144
37636,-725,-2319,3179,-1,-8,134
37646,-749,-2294,3153,1,-34,127
37656,-748,-2343,3143,10,-47,125
37666,-714,-2452,3117,26,-51,133
37676,-647,-2524,3122,57,-43,120
37686,-618,-2448,3137,58,-8,88
37696,-626,-2281,3214,45,20,73
37706,-684,-2184,3231,24,32,74
37716,-746,-2214,3288,-26,34,69
37726,-725,-2327,3229,-70,16,52
37736,-693,-2407,3126,-63,22,43
37746,-700,-2455,3108,-26,21,37
37756,-704,-2390,3143,-19,20,15
37766,-733,-2336,3134,4,20,13
37777,-787,-2353,3160,18,19,6
37787,-771,-2398,3134,23,2,-7
37797,-718,-2383,3168,30,-2,-7
37807,-689,-2321,3249,10,2,0
37817,-672,-2243,3256,-28,2,5
37827,-692,-2204,3211,-52,8,9
37837,-673,-2242,3159,-63,0,11
37847,-663,-2307,3146,-77,5,15
37857,-667,-2370,3165,-78,7,7
37867,-703,-2394,3154,-63,8,28
37877,-728,-2371,3160,-39,3,26
37887,-718,-2352,3153,-34,2,19
37897,-723,-2355,3174,-42,-7,24
37907,-725,-2343,3151,-39,-9,19
37917,-707,-2365,3156,-58,-4,10
37927,-707,-2307,3136,-56,-6,4
37937,-662,-2324,3222,-49,-2,18
37947,-683,-2307,3203,-75,-12,27
37957,-689,-2268,3184,-65,-21,30
37967,-699,-2247,3197,-64,-30,48
37978,-692,-2311,3126,-95,-27,52
37988,-655,-2393,3097,-98,-14,43
37998,-670,-2474,3078,-97,-3,50
38008,-690,-2476,3102,-69,-7,55
38018,-704,-2402,3144,-55,-10,55
38028,-722,-2305,3184,-31,-26,66
38038,-751,-2270,3225,-31,-41,61
38048,-777,-2319,3150,-77,-65,73
38058,-765,-2430,3082,-58,-69,64
38068,-728,-2529,3072,-67,-70,55
38078,-711,-2574,3056,-61,-63,43
38088,-680,-2477,3025,-2,-41,39
38098,-689,-2342,3079,37,-37,54
38108,-705,-2296,3156,59,-24,55
38118,-708,-2297,3196,24,-36,52
38128,-718,-2312,3210,24,-42,60
38138,-725,-2307,3232,20,-57,66
38148,-726,-2306,3257,-12,-68,68
38158,-744,-2289,3169,-40,-68,65
38168,-725,-2337,3142,-47,-65,57
38179,-697,-2415,3053,-66,-49,42
38189,-678,-2469,2997,-37,-29,38
38199,-652,-2462,3075,-8,-8,35
38209,-662,-2387,3117,1,3,33
38219,-694,-2363,3147,25,12,25
38229,-735,-2398,3127,33,8,15
38239,-740,-2417,3175,37,8,16
38249,-726,-2417,3213,25,-4,5
38259,-746,-2368,3221,0,-17,1
38269,-803,-2322,3191,-13,-27,-4
38279,-792,-2233,3153,-11,-42,-3
