t_ms,ax,ay,az,gx,gy,gz
0,423,144,3963,-171,11,-9
10,431,142,3976,-132,-6,11
20,493,137,3985,-124,-22,25
30,491,103,4034,-116,-13,35
40,481,60,4038,-96,-3,37
50,477,28,4040,-57,-12,26
60,496,62,4101,-25,-20,17
70,494,31,4103,-8,-21,7
80,470,58,4108,2,-21,-3
90,499,63,4126,12,-20,-9
100,509,90,4112,-1,-15,-1
110,516,154,4089,-12,-8,1
120,499,148,4078,-13,-3,3
130,535,115,4078,-20,-4,6
140,483,105,4059,-5,-6,2
150,479,113,4053,-15,-20,16
160,508,90,4006,-20,-22,10
170,510,118,4014,-4,-22,0
180,478,123,4025,-9,-24,7
190,495,92,4017,-20,-24,11
200,513,86,4045,-20,-20,5
210,539,90,4039,-12,-20,-7
220,530,80,4039,27,-24,-20
230,490,104,4058,32,-30,-14
240,488,101,4061,13,-29,-9
250,503,144,4067,-8,-17,0
260,491,175,4062,-30,-5,7
270,479,166,4045,-47,-5,13
280,488,144,4042,-63,-11,21
290,475,130,4007,-57,-13,26
300,472,108,4032,-51,-21,12
310,499,82,4051,-56,-18,7
320,501,77,4062,-49,-9,1
330,507,50,4060,-37,0,7
340,479,79,4060,-26,7,1
350,478,37,4073,-30,2,4
360,509,53,4062,-24,-2,-2
370,501,78,4077,-30,0,-3
380,503,117,4065,-28,2,-11
390,506,106,4060,-31,3,0
400,490,95,4057,-29,6,4
410,508,57,4077,-18,6,16
420,494,42,4049,-18,6,20
430,474,81,4057,-9,2,14
440,495,43,4067,-6,-4,11
450,495,43,4050,-2,-8,9
460,502,89,4026,1,-1,3
470,485,107,4036,-10,1,4
480,483,87,4043,-19,0,6
490,494,93,4031,-27,1,6
500,492,70,4058,-18,6,4
510,475,49,4067,-31,7,4
520,503,66,4070,-28,3,-4
530,483,82,4067,-31,-3,-10
540,488,115,4070,-40,-2,-7
550,492,112,4027,-40,-4,3
560,478,110,4030,-30,-3,5
570,462,96,4046,-44,-9,4
580,477,78,4031,-49,-6,1
590,479,133,4042,-40,-3,10
600,478,116,4040,-43,-4,10
610,485,80,4057,-50,-7,9
620,501,83,4040,-49,-9,4
630,481,88,4057,-59,-6,7
640,494,96,4071,-71,-2,3
650,481,78,4090,-87,-1,15
660,496,70,4060,-94,-3,5
670,495,59,4076,-90,-10,-7
680,505,69,4060,-91,-15,-15
690,495,87,4045,-77,-8,-21
700,490,70,4053,-75,-13,-41
710,498,80,4060,-84,-17,-57
720,495,43,4082,-99,-21,-87
730,489,49,4078,-115,-25,-113
740,475,41,4054,-136,-25,-127
750,472,79,4086,-155,-31,-126
760,522,62,4072,-143,-51,-121
770,488,-55,4016,-188,-46,-83
780,512,-40,4032,-194,-46,-80
790,502,15,3993,-191,-37,-84
800,551,-52,4001,-209,-20,-70
810,559,-39,3963,-189,-6,-88
820,551,-52,4005,-162,14,-107
830,468,-53,4021,-171,27,-91
840,478,-36,4026,-179,37,-82
850,596,-21,4150,-185,30,-75
860,468,25,4053,-175,47,-68
870,740,140,4102,-194,23,0
880,253,177,3960,-141,122,103
890,257,-74,4133,-168,14,31
900,489,-195,4094,-212,-15,35
910,508,-167,4054,-178,-17,-21
920,522,-413,4068,-125,-7,-88
930,639,-250,4099,-112,87,-164
940,457,-50,4071,-33,109,-137
950,384,-98,4090,-47,106,-179
960,529,-136,4083,-21,65,-148
970,418,-171,4086,-23,69,-210
980,634,-170,4080,-17,60,-230
990,572,-139,4017,-1,126,-153
1000,415,-99,4065,28,127,-101
1010,307,-117,4072,25,106,-46
1020,350,-93,4067,24,53,-65
1030,447,-91,4035,32,36,-61
1040,420,-99,4047,21,33,-81
1050,479,-131,4039,15,19,-75
1060,454,-144,4013,3,39,-53
1070,418,-110,4012,-11,41,-31
1080,427,-80,3997,-4,37,-8
1090,462,-129,4038,7,37,8
1100,511,-170,4041,13,53,27
1110,460,-175,4067,62,72,22
1120,411,-108,4100,94,67,-6
1130,441,-7,4098,93,60,-13
1140,499,45,4092,61,53,-37
1150,402,90,4084,65,120,-10
1160,287,107,4052,-2,65,-48
1171,305,135,4044,-40,12,-79
1181,381,80,4006,-76,-59,-114
1191,562,-91,3985,-87,-69,-170
1201,512,-206,3997,-57,-34,-152
1211,479,-211,4011,-44,-19,-144
1221,462,-148,3981,-23,5,-143
1231,363,-87,4023,5,5,-90
1241,350,-85,4044,-14,-28,-27
1251,431,-106,4037,-30,-27,-22
1261,531,-98,4040,-63,-4,-24
1271,485,-117,4061,-60,24,-9
1281,406,-149,4096,-57,47,28
1291,358,-163,4116,-51,11,-9
1301,369,-142,4097,-31,-8,-16
1311,427,-81,4117,12,-25,-64
1321,462,-68,4091,22,-22,-86
1331,421,-40,4077,16,-18,-79
1341,435,-23,4044,-10,5,-61
1351,379,-28,4026,-25,-6,-54
1361,451,-66,4003,-29,-6,-57
1372,435,-119,4014,-32,13,-8
1382,401,-133,4028,-26,10,9
1392,429,-131,4025,3,-7,0
1402,448,-101,4037,18,-10,-2
1412,427,-85,4044,23,-6,-5
1422,435,-80,4058,18,-7,-5
1432,448,-62,4037,2,-3,0
1442,425,2,4033,-14,1,8
1452,416,-32,4090,-46,1,14
1462,450,-73,4026,-72,0,12
1472,460,-47,4051,-50,2,7
1482,442,-75,4077,-36,11,16
1492,457,-138,4075,-24,6,11
1502,457,-144,4054,-15,8,-1
1512,446,-107,4041,-11,23,-2
1522,422,-98,4046,-10,24,-11
1532,448,-81,4031,-20,28,-6
1542,453,-57,4034,-35,40,0
1552,438,-87,4037,-31,44,-2
1562,437,-142,4049,-19,44,-5
1573,427,-163,4042,-14,46,-12
1583,450,-138,4040,-2,49,-4
1593,418,-94,4015,23,50,-1
1603,432,-62,4038,51,53,1
1613,400,-64,4022,23,55,13
1623,378,-88,4033,-2,53,24
1633,371,-95,4038,-16,51,27
1643,388,-75,4033,-8,45,14
1653,375,-52,4061,2,38,16
1663,378,-65,4086,-13,35,10
1673,378,-67,4090,-23,31,16
1683,392,-54,4112,-38,44,16
1693,380,-53,4133,-39,39,18
1703,404,-69,4118,-27,35,16
1713,395,-64,4084,-12,31,17
1723,398,-70,4071,-5,32,31
1733,375,-72,4041,5,29,33
1743,398,-115,4041,9,25,34
1753,393,-127,4006,1,28,41
1763,384,-86,4025,6,24,49
1774,395,-76,4023,16,27,42
1784,376,-83,4047,17,26,46
1794,376,-106,4037,13,28,44
1804,394,-105,4042,10,35,41
1814,385,-82,4061,4,39,49
1824,387,-52,4064,-14,48,58
1834,381,-73,4055,-22,53,64
1844,383,-96,4057,-13,48,63
1854,380,-139,4054,-1,51,57
1864,398,-124,4043,23,55,42
1874,369,-85,4069,34,62,33
1884,364,-55,4078,32,64,45
1894,370,-28,4074,22,71,53
1904,346,-27,4080,-3,80,65
1914,336,-50,4091,-44,81,84
1924,390,-56,4076,-89,118,115
1934,422,-5,4013,-83,116,140
1944,425,51,4026,-39,133,170
1954,428,42,4037,-30,162,210
1964,456,-14,4037,-44,202,254
1975,492,-94,4029,-32,282,299
1985,485,-184,4077,-30,332,337
1995,266,-197,3967,-13,359,346
2005,358,-179,4077,-39,345,375
2015,374,-178,4143,-149,392,446
2025,348,-224,4129,-283,411,524
2035,199,-92,4157,-425,480,547
2045,6,-42,4003,-599,396,507
2055,83,-229,4053,-668,271,490
2065,213,-350,3993,-704,269,461
2075,7,-352,3928,-508,164,375
2085,-133,-276,3960,-309,43,318
2095,-64,-237,4086,-314,-10,251
2105,-87,-205,4033,-462,7,231
2115,17,-190,4072,-565,66,159
2125,2,-249,4041,-637,85,121
2135,-19,-260,4021,-667,54,75
2145,55,-226,4082,-600,8,59
2155,70,-288,4182,-532,0,2
2165,108,-400,4176,-539,-1,12
2176,225,-429,4226,-606,17,51
2186,260,-504,4187,-584,3,27
2196,181,-710,4251,-606,-34,21
2206,474,-615,4162,-645,28,-58
2216,388,-228,4054,-527,124,-148
2226,131,-55,4008,-342,119,-108
2236,127,-155,4133,-172,35,-37
2246,101,-272,4217,-234,116,5
2256,44,-285,4200,-452,114,52
2266,18,-214,4091,-638,86,136
2276,78,-104,4081,-769,135,193
2286,98,-66,3916,-830,182,185
2296,103,-128,3967,-880,272,208
2306,99,-218,3881,-1017,300,228
2316,30,-473,3884,-1100,285,176
2326,-30,-895,3792,-1096,182,161
2336,46,-1138,3705,-922,224,94
2346,81,-991,4078,-891,290,16
2356,-21,-840,3991,-1032,323,-43
2366,-152,-770,3999,-1122,317,-89
2377,-288,-1126,3986,-1330,294,-31
2387,-412,-1403,3861,-1538,226,40
2397,-408,-1566,3823,-1586,195,-55
2407,-326,-1716,3927,-1650,62,-103
2417,-268,-1751,3674,-1606,112,-321
2427,-177,-1703,3672,-1428,43,-413
2437,-68,-1946,3697,-1251,6,-427
2447,-5,-2005,3667,-1078,-17,-465
2457,-11,-1966,3571,-868,-36,-521
2467,17,-2125,3440,-612,-31,-534
2477,90,-2286,3432,-174,-14,-591
2487,176,-2482,3419,366,-2,-617
2497,300,-2584,3635,977,96,-612
2507,238,-2359,3932,1427,259,-523
2517,124,-2214,4127,1729,449,-372
2527,4,-2013,4291,2027,518,-251
2537,-127,-1425,4314,2220,546,-168
2547,-229,-782,4332,2205,472,-122
2557,-416,-199,4067,2107,326,-141
2567,-456,70,4156,1973,85,-284
2578,-460,12,4086,1673,-142,-287
2588,-398,-181,3982,1441,-331,-296
2598,-328,-264,3992,1246,-540,-306
2608,-301,-366,3917,1096,-694,-283
2618,-213,-485,3822,981,-866,-234
2628,-200,-482,3684,893,-1056,-169
2638,-165,-449,3634,838,-1306,-105
2648,-118,-481,3674,738,-1523,-29
2658,26,-323,3557,661,-1658,36
2668,114,-87,3612,639,-1724,40
2678,-4,359,3465,717,-1795,-7
2688,1787,-121,-295,1248,-2215,96
2698,2654,-575,5140,3146,-2457,676
2708,3761,5,4451,1654,-296,-601
2718,3200,1535,4628,909,215,-1170
2728,3203,1474,4796,1018,1087,-1157
2738,1773,671,5382,866,1030,-587
2748,551,368,5684,987,1094,-320
2758,103,390,5911,1324,907,-629
2768,619,729,6347,1548,695,-1073
2779,1435,1413,6581,1544,662,-1329
2789,2076,2161,6751,1371,750,-1444
2799,2569,2782,6763,1076,1076,-1666
2809,2820,3263,6698,790,1531,-1943
2819,2787,3444,6606,528,2036,-2018
2829,3037,3522,7344,112,2201,-2459
2839,-297,2538,7082,395,2670,-1506
2849,4527,3983,7006,-796,2362,-4287
2859,5140,3542,7783,-325,3467,-3391
2869,3776,2792,8059,-1014,4055,-2990
2879,3483,2199,7365,-1209,4589,-3418
2889,3147,1259,7022,-1207,4956,-3698
2899,3019,672,6381,-1200,5141,-3809
2909,3107,200,5427,-1039,5446,-3954
2919,3149,-287,4751,-797,5821,-4097
2929,3058,-771,4296,-606,6135,-4198
2939,2853,-1238,3690,-481,6340,-4140
2949,2485,-1618,3231,-410,6420,-3956
2959,1990,-1760,2877,-423,6437,-3834
2969,1536,-1688,2523,-515,6433,-3741
2980,984,-1543,1860,-738,6349,-3571
2990,351,-1487,1113,-1001,6266,-3289
3000,-220,-1529,512,-1305,6165,-3015
3010,-851,-1526,59,-1640,6020,-2778
3020,-1474,-1355,-92,-2056,5856,-2563
3030,-2069,-971,-216,-2720,5729,-2380
3040,-2610,-514,-434,-3470,5596,-2151
3050,-3010,-132,-1184,-4107,5419,-2017
3060,-3151,-113,-2140,-4264,5102,-1935
3070,-2888,-749,-2683,-4214,4785,-1949
3080,-2333,-2011,-3832,-3630,4605,-2029
3090,-1857,-3629,-4209,-2377,4457,-2148
3100,-1524,-5075,-4104,-930,4375,-2213
3110,-1713,-5525,-3462,326,4014,-2017
3120,-1742,-4752,-3175,857,3534,-1823
3130,-1297,-3629,-3524,998,2951,-1650
3140,-629,-3360,-3220,565,2341,-1603
3150,-168,-4545,-3832,-96,1647,-1583
3160,269,-6233,-4230,-686,1069,-1444
3170,493,-7203,-5048,-809,553,-1089
3181,695,-7155,-5174,-767,84,-723
3191,762,-6243,-5765,-975,-348,-300
3201,544,-5585,-6179,-1002,-820,90
3211,434,-5351,-6407,-921,-1335,499
3221,429,-5177,-6361,-510,-1893,924
3231,384,-5145,-6068,103,-2465,1318
3241,301,-5125,-5703,751,-3004,1650
3251,347,-4915,-5117,1240,-3501,1987
3261,310,-4508,-4516,1488,-3985,2279
3271,188,-4068,-3975,1590,-4461,2512
3281,116,-3807,-3508,1668,-4892,2728
3291,208,-3710,-3060,1673,-5320,2937
3301,369,-3369,-2753,1613,-5737,3122
3311,559,-2921,-2217,1584,-6105,3294
3321,806,-2455,-1748,1499,-6427,3430
3331,1039,-2136,-1766,1618,-6727,3527
3341,1187,-1990,-1388,1770,-7082,3669
3351,1451,-1618,-649,1805,-7378,3811
3361,1839,-1102,63,1886,-7597,3953
3371,2185,-582,1433,2137,-7693,4052
3382,2403,-134,2779,2539,-7689,4190
3392,2424,409,3360,3408,-7698,4399
3402,2487,911,3518,4821,-7466,4694
3412,2438,976,3283,6475,-7373,4967
3422,2907,1030,3001,8005,-6817,5268
3432,3614,1571,2361,9325,-5535,5617
3442,3951,2662,2112,10604,-4255,5946
3452,4383,5066,2074,10963,-2686,6101
3462,4389,7914,2454,10509,-1665,6154
3472,3823,10402,3746,8107,-1012,6127
3482,2568,12933,4548,3774,-431,5769
3492,1205,14536,4867,-851,-380,4930
3502,306,13531,4173,-4289,-899,3862
3512,270,10441,3628,-6065,-1474,3141
3522,512,7458,3465,-6612,-1852,2659
3532,851,4524,3662,-5658,-1971,2065
3542,1336,1836,4344,-3686,-1743,1356
3552,1874,735,4933,-1444,-1264,795
3562,2215,1431,5392,396,-717,437
3572,2072,2919,5599,1351,-344,212
3583,1602,3713,5550,1535,-120,82
3593,1132,3566,5282,1033,-29,-45
3603,1019,2916,4545,384,-15,-192
3613,1145,2100,3778,8,23,-313
3623,1279,1565,3429,-64,102,-347
3633,1385,1511,3293,-2,162,-344
3643,1512,1806,3441,149,234,-326
3653,1498,2126,3752,149,290,-330
3663,1356,2378,3906,-56,311,-346
3673,1194,2423,3872,-282,325,-317
3683,1055,2145,3732,-500,309,-255
3693,919,1823,3538,-626,309,-180
3703,806,1505,3412,-586,304,-119
3713,727,1295,3331,-379,291,-64
3723,703,1254,3450,-120,311,-25
3733,685,1444,3613,84,307,16
3743,655,1725,3758,200,295,23
3753,642,1957,3795,231,248,29
3763,644,2097,3704,201,200,26
3773,628,2125,3546,145,156,19
3784,590,2145,3373,81,107,31
3794,539,2156,3265,24,88,35
3804,499,2171,3160,-55,42,47
3814,510,2077,3114,-106,33,26
3824,589,1986,3197,-143,26,2
3834,635,1955,3317,-159,22,-8
3844,671,1964,3421,-162,0,-36
3854,712,1990,3490,-161,-1,-96
3864,740,2084,3557,-166,2,-150
3874,725,2154,3599,-169,-1,-191
3884,694,2166,3600,-196,11,-247
3894,663,2181,3578,-242,7,-296
3904,663,2213,3590,-286,13,-340
3914,694,2190,3605,-330,34,-381
3924,761,2189,3628,-365,71,-435
3934,784,2191,3671,-390,114,-489
3944,803,2182,3692,-425,165,-570
3954,833,2175,3713,-473,222,-684
3964,885,2212,3721,-527,283,-834
3974,925,2273,3701,-626,381,-1003
3985,938,2384,3602,-788,486,-1187
3995,878,2518,3502,-946,560,-1389
4005,853,2545,3648,-1151,635,-1591
4015,890,2509,3769,-1436,682,-1779
4025,957,2395,3746,-1750,734,-1935
4035,1018,2225,3690,-2092,808,-2069
4045,1008,1996,3575,-2411,903,-2162
4055,915,1726,3534,-2711,995,-2218
4065,762,1513,3563,-3010,1083,-2247
4075,635,1387,3482,-3311,1210,-2252
4085,494,1182,3533,-3501,1324,-2233
4095,334,967,3638,-3744,1403,-2194
4105,202,726,3525,-3980,1464,-2180
4115,114,305,3282,-4106,1504,-2143
4125,63,-166,3069,-4224,1552,-2071
4135,-70,-560,2837,-4246,1567,-1957
4145,-311,-885,2711,-4262,1562,-1811
4155,-656,-1104,2882,-4301,1502,-1633
4165,-1020,-1243,3198,-4367,1404,-1455
4175,-1297,-1298,3553,-4411,1279,-1325
4186,-1486,-1372,3667,-4382,1157,-1213
4196,-1625,-1477,3723,-4276,1028,-1118
4206,-1668,-1499,3584,-4247,889,-1050
4216,-1668,-1370,3287,-4228,758,-946
4226,-1684,-1351,3097,-4031,662,-762
4236,-1755,-1517,2984,-3800,573,-587
4246,-1764,-1854,2888,-3592,453,-502
4256,-1679,-2319,2720,-3472,308,-433
4266,-1633,-2746,2424,-3286,116,-325
4276,-1632,-3130,2300,-2950,-17,-222
4286,-1668,-3479,2322,-2584,-127,-176
4296,-1746,-3597,2503,-2282,-255,-181
4306,-1753,-3453,2767,-2019,-395,-265
4316,-1702,-3080,2983,-1756,-559,-396
4326,-1519,-2506,2850,-1601,-662,-429
4336,-1395,-2064,2590,-1381,-720,-355
4346,-1398,-2097,2384,-1191,-817,-173
4356,-1433,-2412,2382,-1137,-849,-63
4366,-1444,-2688,2390,-1085,-886,-110
4376,-1324,-2905,2476,-875,-872,-210
4387,-1190,-2871,2702,-694,-801,-278
4397,-1106,-2547,2877,-648,-750,-327
4407,-929,-2299,3069,-659,-688,-352
4417,-1023,-2074,3099,-905,-589,-365
4427,-1038,-1977,2989,-1142,-582,-437
4437,-940,-2167,2910,-1247,-552,-502
4447,-846,-2632,3000,-1305,-536,-488
4457,-767,-3007,2921,-1236,-435,-488
4467,-660,-3235,3147,-1026,-316,-548
4477,-545,-3182,3300,-935,-164,-622
4487,-430,-3008,3269,-964,-4,-639
4497,-373,-2880,3107,-1041,104,-554
4507,-374,-3006,3005,-1232,195,-474
4517,-477,-3201,2721,-1396,271,-471
4527,-549,-3352,2593,-1362,346,-524
4537,-638,-3503,2514,-1320,426,-591
4547,-680,-3533,2390,-1221,497,-621
4557,-735,-3500,2328,-1045,499,-610
4567,-713,-3507,2435,-877,467,-609
4577,-604,-3512,2659,-815,453,-617
4588,-536,-3526,2720,-833,447,-611
4598,-475,-3587,2726,-838,446,-624
4608,-457,-3752,2550,-823,429,-600
4618,-510,-3913,2166,-745,377,-547
4628,-532,-4130,1904,-510,325,-503
4638,-487,-4367,1627,-213,223,-419
4648,-430,-4521,1430,164,147,-329
4658,-356,-4511,1319,560,98,-260
4668,-278,-4354,1343,962,71,-231
4678,-205,-4017,1502,1270,90,-200
4688,-238,-3653,1653,1414,108,-163
4698,-334,-3334,1825,1393,127,-142
4708,-400,-3083,2029,1284,124,-145
4718,-404,-2942,2250,1118,130,-161
4728,-386,-2957,2438,900,131,-190
4738,-390,-3012,2488,730,151,-190
4748,-439,-3087,2459,645,126,-198
4758,-456,-3172,2298,657,84,-201
4768,-413,-3320,2169,778,72,-155
4778,-353,-3464,2180,908,66,-88
4789,-316,-3473,2153,1031,65,-57
4799,-229,-3402,2276,1192,114,-77
4809,-189,-3315,2421,1254,146,-86
4819,-232,-3146,2462,1215,175,-74
4829,-308,-2962,2589,1149,198,-64
4839,-362,-2852,2678,1039,205,-45
4849,-451,-2734,2804,920,217,-32
4859,-460,-2588,2839,760,192,-53
4869,-424,-2499,2910,654,180,-97
4879,-451,-2521,2978,550,171,-129
4889,-489,-2570,2957,431,148,-144
4899,-510,-2606,2933,384,134,-144
4909,-500,-2706,2897,384,104,-124
4919,-487,-2805,2876,427,93,-105
4929,-463,-2827,2840,443,85,-97
4939,-475,-2731,2864,431,88,-98
4949,-496,-2622,2826,436,62,-98
4959,-531,-2630,2785,456,8,-83
4969,-532,-2712,2737,463,-57,-69
4979,-477,-2777,2644,495,-99,-64
4990,-387,-2847,2623,565,-115,-79
5000,-333,-2922,2671,594,-109,-75
5010,-297,-2968,2612,620,-94,-66
5020,-240,-2997,2686,694,-73,-53
5030,-232,-2951,2809,724,-36,-59
5040,-271,-2755,2941,660,4,-65
5050,-287,-2551,3053,516,0,-59
5060,-297,-2409,3130,294,9,-47
5070,-291,-2349,3159,51,-16,-22
5080,-260,-2471,3104,-160,-41,8
5090,-268,-2687,2959,-266,-59,44
5100,-297,-2894,2840,-255,-53,59
5110,-326,-3008,2812,-124,-31,43
5120,-391,-2943,2839,48,-6,18
5130,-433,-2808,2879,208,10,0
5140,-473,-2711,2912,345,14,10
5150,-512,-2637,2959,429,-8,7
5160,-497,-2543,2991,477,-40,-40
5170,-424,-2435,3046,546,-38,-73
5180,-368,-2456,3141,588,-28,-57
5191,-349,-2445,3156,564,-24,-18
5201,-398,-2393,3124,536,-33,-9
5211,-377,-2391,3221,527,-41,-12
5221,-328,-2417,3241,490,-56,6
5231,-272,-2404,3276,408,-46,18
5241,-272,-2367,3234,325,-42,19
5251,-279,-2374,3279,260,-35,21
5261,-255,-2388,3243,203,-34,28
5271,-238,-2361,3220,188,-33,17
5281,-226,-2339,3205,156,-39,11
5291,-213,-2314,3191,114,-30,23
5301,-237,-2322,3172,89,-37,46
5311,-283,-2361,3165,92,-16,55
5321,-289,-2441,3172,99,-18,55
5331,-294,-2494,3145,141,-9,41
5341,-290,-2512,3189,190,17,38
5351,-309,-2486,3213,186,27,35
5361,-344,-2427,3255,174,46,18
5371,-370,-2329,3251,130,57,0
5381,-397,-2277,3260,102,52,-33
5392,-381,-2238,3197,59,27,-67
5402,-340,-2253,3185,54,10,-62
5412,-340,-2320,3183,46,1,-48
5422,-323,-2378,3193,38,10,-55
5432,-329,-2358,3206,61,18,-70
5442,-323,-2370,3212,81,17,-63
5452,-357,-2366,3199,80,7,-39
5462,-364,-2366,3182,106,1,-37
5472,-349,-2387,3176,141,-9,-36
5482,-362,-2396,3161,170,-16,-39
5492,-356,-2403,3173,197,-30,-37
5502,-325,-2402,3140,236,-52,-38
5512,-281,-2399,3198,286,-46,-29
5522,-259,-2385,3190,299,-51,-18
5532,-261,-2359,3210,307,-49,-15
5542,-266,-2301,3234,305,-42,-6
5552,-283,-2249,3288,264,-40,5
5562,-324,-2207,3281,204,-49,7
5572,-303,-2159,3306,164,-50,0
5582,-326,-2166,3320,124,-58,-6
5593,-295,-2199,3308,74,-60,10
5603,-321,-2236,3326,57,-51,8
5613,-320,-2272,3392,42,-37,-5
5623,-316,-2290,3426,5,-18,-13
5633,-331,-2254,3361,12,3,-11
5643,-376,-2251,3340,43,7,-17
5653,-387,-2233,3355,58,7,-28
5663,-379,-2215,3404,52,5,-23
5673,-353,-2157,3390,12,3,-16
5683,-317,-2172,3395,1,-8,-1
5693,-271,-2196,3393,-26,-12,24
5703,-239,-2161,3413,-56,-9,39
5713,-221,-2174,3345,-67,-15,40
5723,-220,-2213,3306,-79,-3,41
5733,-231,-2250,3299,-102,-4,24
5743,-212,-2238,3298,-108,-18,8
5753,-174,-2208,3304,-95,-16,-3
5763,-153,-2227,3310,-60,-5,-2
5773,-181,-2262,3300,-32,-7,4
5783,-215,-2282,3266,-8,-9,16
5794,-250,-2297,3275,17,-9,19
5804,-323,-2328,3202,31,-6,23
5814,-351,-2293,3152,76,-11,-3
5824,-398,-2260,3151,119,-28,-19
5834,-398,-2230,3193,107,-47,-10
5844,-407,-2227,3251,50,-54,7
5854,-416,-2231,3244,2,-62,2
5864,-394,-2240,3233,0,-68,9
5874,-359,-2281,3272,30,-57,16
5884,-331,-2310,3348,56,-46,29
5894,-328,-2267,3425,64,-41,19
5904,-259,-2214,3451,43,-47,11
5914,-226,-2206,3418,-8,-51,32
5924,-195,-2235,3393,-73,-38,59
5934,-215,-2273,3342,-126,-27,58
5944,-179,-2321,3311,-157,6,36
5954,-188,-2317,3297,-165,21,24
5964,-183,-2320,3247,-144,21,23
5974,-202,-2313,3239,-106,37,24
5984,-240,-2288,3217,-73,41,19
5995,-285,-2228,3256,-24,42,-8
6005,-308,-2199,3329,5,30,-30
6015,-335,-2177,3406,-10,12,-29
6025,-340,-2127,3543,-37,-13,-33
6035,-336,-2031,3582,-73,-42,-27
6045,-318,-1978,3520,-90,-73,-27
6055,-294,-2075,3460,-104,-104,-11
6065,-318,-2283,3342,-132,-133,30
6075,-371,-2445,3213,-132,-160,57
6085,-437,-2505,3080,-74,-183,29
6095,-448,-2453,3074,15,-188,-20
6105,-429,-2335,3090,77,-201,-50
6115,-394,-2280,3187,146,-213,-71
6125,-332,-2235,3261,153,-241,-57
6135,-267,-2241,3310,141,-261,-42
6145,-209,-2230,3375,141,-273,-41
6155,-133,-2240,3362,92,-265,-44
6165,-114,-2263,3319,38,-240,-32
6175,-108,-2323,3237,10,-229,-14
6185,-122,-2392,3139,35,-224,-5
6196,-139,-2396,3102,111,-203,-27
6206,-130,-2352,3112,225,-188,-61
6216,-131,-2332,3140,356,-176,-77
6226,-125,-2269,3212,423,-152,-100
6236,-89,-2153,3314,478,-142,-118
6246,-91,-2100,3435,478,-127,-115
6256,-85,-2001,3541,406,-124,-126
6266,-82,-1896,3609,316,-99,-129
6276,-102,-1853,3678,171,-91,-97
6286,-118,-1839,3648,17,-114,-50
6296,-78,-1913,3590,-102,-124,-16
6306,-62,-2024,3518,-212,-128,-9
6316,-23,-2086,3458,-309,-106,-14
6326,-21,-2086,3419,-362,-83,-6
6336,-20,-2081,3459,-410,-65,5
6346,-3,-2055,3454,-498,-66,26
6356,40,-2038,3575,-651,11,70
6366,47,-2012,3599,-830,47,100
6376,-1,-1968,3572,-1013,87,106
6386,-35,-2056,3458,-1154,85,129
6397,-34,-2216,3381,-1283,92,171
6407,-22,-2368,3271,-1374,104,198
6417,-44,-2468,3244,-1416,155,212
6427,-76,-2518,3180,-1470,190,218
6437,-125,-2572,3102,-1501,206,242
6447,-178,-2665,3007,-1536,214,278
6457,-239,-2739,2886,-1511,185,288
6467,-252,-2820,2857,-1456,173,282
6477,-240,-2830,2830,-1428,168,287
6487,-254,-2754,2810,-1410,166,292
6497,-242,-2680,2787,-1407,160,289
6507,-267,-2681,2782,-1444,146,298
6517,-297,-2764,2750,-1492,128,314
6527,-350,-2849,2656,-1535,102,326
6537,-361,-2880,2632,-1560,72,326
6547,-372,-2906,2575,-1563,20,328
6557,-372,-2981,2460,-1554,-24,343
6567,-366,-3077,2321,-1516,-59,351
6577,-355,-3232,2144,-1422,-85,354
6587,-350,-3432,2048,-1265,-95,357
6598,-381,-3549,2100,-1122,-60,339
6608,-449,-3468,2094,-980,-37,291
6618,-513,-3381,2104,-833,-56,228
6628,-520,-3318,2129,-716,-85,183
6638,-507,-3309,2102,-601,-126,168
6648,-465,-3311,2123,-544,-148,158
6658,-469,-3317,2107,-507,-158,156
6668,-460,-3332,2136,-443,-149,154
6678,-499,-3335,2187,-440,-128,143
6688,-477,-3322,2178,-440,-143,131
6698,-468,-3311,2123,-392,-166,139
6708,-450,-3346,2135,-364,-182,143
6718,-433,-3360,2078,-349,-190,147
6728,-422,-3421,2027,-323,-199,141
6738,-406,-3473,2075,-309,-177,145
6748,-403,-3417,2101,-306,-153,138
6758,-404,-3345,2139,-273,-129,99
6768,-397,-3290,2130,-262,-123,63
6778,-379,-3282,2127,-266,-123,58
6788,-386,-3312,2055,-294,-128,71
6799,-375,-3396,2031,-283,-122,64
6809,-347,-3422,2002,-258,-105,48
6819,-347,-3405,1983,-236,-102,41
6829,-331,-3415,1939,-183,-114,61
6839,-320,-3491,1934,-172,-117,92
6849,-320,-3484,1970,-175,-101,104
6859,-374,-3456,1954,-165,-64,92
6869,-422,-3384,2030,-167,-34,62
6879,-474,-3363,2046,-194,-34,58
6889,-502,-3366,2047,-237,-51,64
6899,-497,-3425,1992,-248,-94,89
6909,-473,-3540,1923,-232,-116,89
6919,-429,-3561,1861,-171,-103,59
6929,-403,-3555,1808,-56,-76,22
6939,-379,-3573,1846,39,-45,3
6949,-415,-3507,1846,131,-26,-5
6959,-451,-3470,1947,209,-16,-23
6969,-440,-3337,2063,189,-21,-35
6979,-419,-3217,2125,147,-25,-31
6989,-403,-3227,2184,69,-43,-15
7000,-379,-3367,2137,5,-62,41
7010,-362,-3524,2076,-3,-77,51
7020,-328,-3579,2054,32,-57,35
7030,-348,-3545,1902,121,-42,19
7040,-372,-3536,1883,268,-31,25
7050,-390,-3568,1837,393,-38,47
7060,-416,-3567,1842,499,-34,39
7070,-438,-3538,1837,587,-36,3
7080,-462,-3432,1853,651,-47,-23
7090,-461,-3403,1877,652,-56,-50
7100,-464,-3414,1903,631,-59,-61
7110,-474,-3426,1912,650,-60,-68
7120,-469,-3453,1989,669,-53,-101
7130,-485,-3420,2004,706,-71,-115
7140,-476,-3435,1996,814,-94,-119
7150,-482,-3473,1939,928,-131,-103
7160,-472,-3520,1937,1066,-176,-99
7170,-410,-3510,2104,1147,-189,-100
7180,-373,-3246,2213,1138,-163,-79
7190,-361,-2931,2335,1109,-119,-63
7201,-363,-2740,2482,977,-107,-58
7211,-342,-2707,2628,771,-105,-45
7221,-357,-2828,2719,581,-118,5
7231,-366,-2996,2735,531,-142,64
7241,-389,-3167,2628,585,-193,95
7251,-410,-3263,2480,769,-240,85
7261,-378,-3335,2436,1047,-258,55
7271,-339,-3303,2521,1272,-261,49
7281,-276,-3059,2668,1381,-267,54
7291,-222,-2713,2723,1425,-277,56
7301,-144,-2459,2859,1365,-261,50
7311,-115,-2346,2980,1146,-239,84
7321,-119,-2314,3015,889,-211,133
7331,-204,-2385,2997,711,-191,158
7341,-276,-2575,3048,605,-190,169
7351,-296,-2756,3107,558,-186,191
7361,-325,-2869,3121,592,-164,192
7371,-323,-2865,3107,682,-157,149
7381,-266,-2688,3174,712,-142,90
7391,-207,-2429,3206,638,-118,76
7402,-177,-2211,3262,467,-99,97
7412,-206,-2062,3233,240,-83,124
7422,-276,-2140,3215,51,-85,122
7432,-320,-2318,3112,-87,-111,103
7442,-318,-2506,3066,-117,-131,73
7452,-257,-2673,3022,-64,-145,48
7462,-184,-2807,3086,62,-123,46
7472,-179,-2799,3127,194,-107,44
7482,-177,-2734,3120,333,-76,14
7492,-200,-2646,3030,454,-55,-20
7502,-218,-2609,2998,562,-47,-17
7512,-284,-2624,2925,614,-55,-7
7522,-307,-2607,2918,684,-51,-24
7532,-355,-2646,2971,811,-53,-57
7542,-334,-2652,3030,921,-59,-82
7552,-310,-2613,3037,1036,-72,-76
7562,-296,-2563,3079,1143,-87,-67
7572,-292,-2507,3093,1185,-109,-72
7582,-276,-2390,3065,1163,-122,-89
7592,-265,-2273,3091,1163,-101,-103
7603,-266,-2254,3204,1168,-115,-126
7613,-264,-2221,3282,1115,-119,-133
7623,-228,-2185,3323,1069,-138,-139
7633,-173,-2185,3326,1094,-168,-124
7643,-115,-2201,3443,1103,-172,-95
7653,-58,-2105,3571,1049,-150,-68
7663,-18,-1904,3754,914,-94,-36
7673,5,-1763,3898,724,-49,15
7683,-8,-1706,3942,483,-24,73
7693,-44,-1724,3888,277,0,116
7703,-52,-1744,3834,125,32,128
7713,-67,-1774,3729,39,70,112
7723,-83,-1744,3677,-36,115,77
7733,-111,-1672,3624,-105,158,38
7743,-132,-1549,3676,-197,190,-4
7753,-150,-1363,3746,-365,221,-4
7763,-169,-1230,3772,-504,237,20
7773,-206,-1319,3867,-625,249,21
7783,-171,-1578,3762,-753,247,34
7793,-132,-1881,3650,-833,269,25
7804,-97,-2107,3522,-862,334,-9
7814,-62,-2230,3400,-789,444,-75
7824,-70,-2322,3330,-658,554,-125
7834,-124,-2357,3351,-524,658,-153
7844,-205,-2340,3334,-460,729,-171
7854,-294,-2340,3284,-378,786,-215
7864,-351,-2326,3300,-237,817,-261
7874,-399,-2287,3350,-110,830,-298
7884,-428,-2208,3387,-3,834,-323
7894,-445,-2106,3421,54,818,-344
7904,-473,-1971,3399,65,801,-352
7914,-496,-1904,3344,49,774,-358
7924,-512,-1930,3329,-10,733,-350
7934,-526,-2005,3250,-95,689,-325
7944,-532,-2159,3223,-166,650,-302
7954,-533,-2251,3170,-236,616,-281
7964,-552,-2306,3128,-276,591,-271
7974,-589,-2339,3128,-313,572,-252
7984,-598,-2343,3093,-379,545,-245
7994,-644,-2327,3045,-422,508,-237
8005,-712,-2290,3008,-467,478,-216
8015,-747,-2368,2976,-480,446,-186
8025,-786,-2471,2928,-486,406,-163
8035,-793,-2551,2901,-449,367,-148
8045,-792,-2615,2914,-430,340,-147
8055,-778,-2622,2890,-426,331,-138
8065,-812,-2609,2901,-397,316,-123
8075,-850,-2609,2956,-375,292,-123
8085,-873,-2567,2906,-360,258,-116
8095,-898,-2534,2901,-303,212,-107
8105,-887,-2567,2971,-261,171,-84
8115,-856,-2581,2973,-255,139,-53
8125,-819,-2597,2905,-232,120,-40
8135,-785,-2614,2925,-163,101,-37
8145,-750,-2629,2956,-128,80,-26
8155,-736,-2591,2978,-111,71,-2
8165,-725,-2546,3010,-81,56,11
8175,-736,-2510,3011,-48,50,28
8185,-739,-2488,2996,-39,43,33
8195,-710,-2457,2968,-23,33,43
8205,-700,-2464,2933,-10,29,39
8215,-703,-2433,2949,0,4,52
8225,-673,-2446,3026,-25,1,75
8235,-668,-2489,2992,-67,-17,90
8245,-663,-2553,3022,-35,4,81
8256,-669,-2607,3063,-4,4,87
8266,-705,-2607,3067,26,5,109
8276,-732,-2552,3136,59,3,130
8286,-759,-2472,3154,84,-7,128
8296,-735,-2430,3140,100,-13,127
8306,-709,-2399,3146,105,-6,133
8316,-706,-2394,3136,100,12,130
8326,-703,-2401,3143,61,38,131
8336,-754,-2404,3050,32,42,133
8346,-782,-2482,3019,61,23,143
8356,-781,-2532,3035,114,21,130
8366,-745,-2538,2980,148,15,102
8376,-723,-2484,2999,248,33,84
8386,-753,-2410,3120,258,44,95
8396,-763,-2343,3167,171,46,106
8406,-787,-2311,3203,105,51,103
8416,-795,-2326,3151,55,60,85
8426,-809,-2323,3085,23,58,70
8436,-780,-2350,3104,42,82,72
8446,-802,-2404,3140,51,89,92
8456,-814,-2402,3174,23,102,81
8466,-854,-2392,3178,4,113,55
8476,-853,-2356,3215,-6,120,32
8486,-864,-2272,3143,-28,113,23
8496,-853,-2256,3167,-5,121,20
8507,-841,-2293,3154,-19,141,5
8517,-846,-2335,3099,-22,159,-19
8527,-853,-2416,3107,10,168,-33
8537,-879,-2465,3103,20,144,-46
8547,-872,-2448,3128,-7,133,-66
8557,-859,-2357,3084,-35,136,-93
8567,-842,-2287,3095,5,175,-117
8577,-855,-2217,3135,1,199,-117
8587,-892,-2214,3107,-24,205,-132
8597,-894,-2263,3082,-47,191,-146
8607,-881,-2331,3111,-82,179,-121
8617,-855,-2391,3110,-93,193,-85
8627,-849,-2417,3110,-94,206,-78
8637,-846,-2386,3097,-81,223,-88
8647,-885,-2386,3122,-82,224,-71
8657,-917,-2387,3161,-147,204,-44
8667,-929,-2393,3132,-210,198,-39
8677,-937,-2387,3129,-223,203,-45
8687,-984,-2388,3076,-266,195,-43
8697,-959,-2409,3006,-309,184,-48
8707,-916,-2447,3007,-314,166,-32
8717,-920,-2487,3013,-302,164,-14
8727,-923,-2559,2979,-290,159,-14
8737,-907,-2603,2884,-250,154,-18
8747,-935,-2605,2823,-184,150,-18
8758,-920,-2600,2902,-125,151,-13
8768,-962,-2584,2955,-128,138,-26
8778,-969,-2499,3002,-178,132,-45
8788,-972,-2424,2985,-220,113,-59
8798,-993,-2440,3027,-266,96,-63
8808,-985,-2440,2981,-303,69,-69
8818,-983,-2434,2928,-288,38,-65
8828,-960,-2421,2919,-256,14,-51
8838,-952,-2465,2910,-234,-10,-33
8848,-948,-2528,2924,-258,-21,9
8858,-968,-2583,2838,-273,-24,43
8868,-975,-2665,2746,-214,-29,47
8878,-921,-2794,2709,-122,-35,8
8888,-922,-2897,2668,-7,-20,-10
8898,-980,-2874,2714,68,-12,-18
8908,-974,-2695,2744,140,-8,-79
8918,-952,-2562,2843,193,-18,-131
8928,-1000,-2477,2945,115,-32,-139
8938,-1028,-2414,3078,-1,-64,-150
8948,-1044,-2336,3086,-74,-91,-174
8958,-999,-2282,2988,-89,-141,-189
8968,-955,-2289,2896,-46,-176,-189
8978,-863,-2430,2948,25,-203,-156
8988,-847,-2575,2930,18,-203,-114
8998,-843,-2664,2845,-22,-192,-80
9009,-837,-2709,2798,-27,-188,-63
9019,-849,-2754,2714,14,-188,-58
9029,-845,-2776,2747,-2,-204,-34
9039,-854,-2717,2778,-25,-183,-43
9049,-880,-2647,2801,-7,-181,-65
9059,-946,-2598,2916,-80,-184,-64
9069,-1009,-2533,3016,-279,-219,-49
9079,-1009,-2463,2919,-507,-254,-59
9089,-981,-2452,2732,-601,-287,-98
9099,-894,-2620,2702,-604,-296,-149
9109,-879,-2772,2776,-629,-308,-158
9119,-900,-2778,2788,-728,-331,-146
9129,-942,-2700,2641,-773,-366,-167
9139,-911,-2681,2525,-678,-401,-162
9149,-817,-2824,2457,-534,-419,-107
9159,-747,-3035,2458,-408,-428,-49
9169,-702,-3099,2542,-332,-417,-15
9179,-641,-3039,2557,-234,-422,-3
9189,-595,-2989,2629,-146,-413,-14
9199,-588,-2879,2780,-138,-409,0
9209,-622,-2727,2936,-249,-419,30
9219,-676,-2625,3041,-438,-420,46
9229,-686,-2554,3069,-672,-448,30
9239,-669,-2524,3044,-926,-492,9
9249,-670,-2526,2824,-1108,-551,2
9260,-606,-2592,2711,-1183,-602,13
9270,-539,-2692,2512,-1218,-658,52
9280,-453,-2929,2460,-1049,-640,139
9290,-431,-3258,2510,-825,-630,255
9300,-435,-3469,2620,-593,-582,332
9310,-409,-3424,2761,-408,-535,346
9320,-400,-3227,2779,-272,-474,317
9330,-390,-2964,2903,-297,-433,288
9340,-444,-2712,2857,-492,-422,299
9350,-498,-2611,2752,-728,-449,334
9360,-521,-2691,2634,-1038,-469,372
9370,-536,-2850,2470,-1319,-449,392
9380,-493,-3050,2416,-1469,-409,388
9390,-498,-3221,2250,-1463,-372,362
9400,-443,-3490,2236,-1305,-331,344
9410,-455,-3653,2170,-1132,-310,388
9420,-485,-3654,2065,-879,-281,395
9430,-504,-3592,2028,-614,-273,343
9440,-493,-3527,2033,-381,-225,296
9450,-516,-3436,2030,-172,-179,265
9460,-589,-3343,1949,6,-158,201
9470,-622,-3321,1932,173,-136,135
9480,-608,-3316,1838,244,-114,68
9490,-574,-3377,1667,379,-88,11
9500,-505,-3518,1939,515,-13,-17
9511,-474,-3473,2326,559,71,-44
9521,-444,-3278,2584,675,131,-92
9531,-394,-3092,2887,737,187,-109
9541,-419,-2920,2903,698,193,-83
9551,-414,-2801,2926,673,170,-37
9561,-440,-2851,2784,694,146,1
9571,-460,-3094,2660,849,165,28
9581,-535,-3362,2630,1091,172,41
9591,-567,-3506,2555,1452,206,21
9601,-547,-3538,2649,1934,257,-20
9611,-543,-3414,2787,2344,320,-43
9621,-600,-3174,2759,2635,378,-63
9631,-749,-2819,2871,2793,446,-59
9641,-965,-2420,3214,2692,481,-68
9651,-1191,-2034,3562,2378,519,-69
9661,-1477,-1868,3879,1834,514,10
9671,-1735,-1939,3960,1190,456,105
9681,-1848,-2325,4059,716,396,195
9691,-1823,-2871,4058,383,359,298
9701,-1718,-3388,3900,257,357,386
9711,-1707,-3734,3635,386,404,493
9721,-1779,-3921,3411,748,428,538
9731,-1799,-3976,3251,1233,433,570
9741,-1757,-3828,3182,1679,427,637
9751,-1664,-3445,3143,2044,407,683
9762,-1554,-2961,3167,2396,389,700
9772,-1448,-2513,3328,2651,363,686
9782,-1232,-2012,3457,2633,304,688
9792,-1029,-1457,3531,2378,217,700
9802,-929,-964,3445,1902,205,707
9812,-1913,-1317,3476,1324,701,1090
9822,-3463,-1666,3078,1217,504,1236
9832,-3023,-1735,2628,1476,290,471
9842,-1939,-1539,2413,1872,79,130
9852,-1045,-1216,2444,2078,-127,325
9862,-737,-757,2360,2169,-51,605
9872,-1015,-321,2262,2294,163,633
9882,-1489,-18,2313,2256,396,442
9892,-1784,233,2467,2084,393,279
9902,-1742,278,2478,1876,217,202
9912,-1416,162,2509,1615,29,159
9922,-1038,-75,2725,1393,-28,103
9932,-840,-388,2896,1219,-6,49
9942,-817,-718,3135,1034,32,2
9952,-898,-870,3171,892,-12,-44
9962,-941,-979,3375,887,-115,-66
9972,-886,-971,3676,762,-210,-42
9982,-813,-812,3650,562,-308,-40
9992,-713,-791,3498,541,-328,-75
10002,-646,-856,3510,538,-319,-102
10013,-593,-892,3418,566,-279,-128
10023,-464,-892,3541,711,-227,-145
10033,-378,-779,3698,805,-159,-110
10043,-433,-588,3770,827,-110,-60
10053,-460,-443,3939,820,-88,-58
10063,-474,-402,4028,780,-134,-64
10073,-395,-490,4016,679,-222,-61
10083,-315,-684,3995,588,-317,-72
10093,-249,-777,4174,510,-385,-53
10103,-137,-658,4156,498,-415,-76
10113,-13,-473,4135,555,-401,-141
10123,51,-291,4025,602,-392,-149
10133,0,-88,3952,585,-382,-126
10143,-159,150,3848,481,-392,-109
10153,-378,338,3937,344,-387,-117
10163,-577,349,3958,164,-384,-128
10173,-762,215,3989,12,-370,-136
10184,-830,-124,4053,-74,-371,-125
10194,-801,-584,4210,-68,-369,-99
10204,-680,-973,4269,45,-360,-89
10214,-523,-1157,4296,285,-310,-103
10224,-498,-1066,4331,508,-225,-76
10234,-749,-655,4402,671,-185,-33
10244,-1227,35,5059,644,-273,-80
10254,-984,362,5003,344,-493,-432
10264,-955,-161,4743,115,-486,-285
10274,-1026,-697,4458,24,-414,-296
10284,-981,-865,4285,81,-306,-58
10294,-1013,-643,4084,133,-195,81
10304,-900,-378,3871,253,-55,194
10314,-817,-310,3890,344,12,227
10324,-622,-303,4019,308,43,234
10334,-498,-278,4101,241,97,261
10344,-419,-185,4070,149,145,181
10355,-377,-131,3965,163,240,248
10365,-469,-64,3866,160,309,269
10375,-438,118,3763,95,297,205
10385,-449,239,3585,81,254,128
10395,-418,250,3454,66,169,-16
10405,-395,93,3454,107,97,-121
10415,-399,-96,3616,144,110,-76
10425,-573,-223,3677,212,153,29
10435,-665,-235,3800,293,183,65
10445,-695,-247,3855,354,189,96
10455,-651,-266,3823,423,214,102
10465,-697,-280,3805,509,257,156
10475,-838,-386,3797,660,295,232
10485,-1190,-523,4011,864,211,259
10495,-1349,-590,4367,891,124,196
10505,-1229,-425,4242,852,-16,143
10516,-1024,-93,4141,816,-67,110
10526,-992,410,4196,714,-72,92
10536,-998,785,4113,564,-64,82
10546,-981,885,3889,471,-72,56
10556,-946,815,3902,428,-60,39
10566,-921,643,3966,362,-56,29
10576,-875,604,4023,281,-58,20
10586,-855,687,4064,152,-48,17
10596,-883,803,4041,28,-34,-3
10606,-921,882,4062,-86,-25,-24
10616,-921,754,4079,-162,-30,-43
10626,-900,533,4070,-233,-22,-80
10636,-862,287,4056,-277,-25,-86
10646,-833,53,4055,-301,-11,-77
10656,-862,-67,4105,-317,4,-47
10666,-906,-95,4051,-327,20,-44
10676,-930,-94,3939,-264,19,-31
10687,-914,-106,3864,-194,21,-24
10697,-924,-83,3799,-113,17,-15
10707,-921,-21,3773,-18,18,-2
10717,-960,51,3846,61,4,15
10727,-981,148,3903,99,-3,16
10737,-1015,202,3887,141,-24,7
10747,-985,218,3939,180,-50,-16
10757,-960,163,3902,205,-65,-29
10767,-942,127,3895,253,-93,-39
10777,-927,181,3931,281,-112,-32
10787,-925,277,3973,274,-140,-36
10797,-930,352,3932,274,-157,-44
10807,-901,370,3893,280,-175,-53
10817,-894,296,3900,287,-178,-51
10827,-877,231,4017,307,-213,-33
10837,-832,223,4051,281,-233,-22
10847,-816,254,4023,297,-255,-2
10858,-788,275,4049,293,-264,14
10868,-784,413,4062,236,-264,27
10878,-819,549,4058,177,-287,44
10888,-815,477,3961,199,-307,47
10898,-833,302,3919,203,-299,38
10908,-786,253,3870,210,-291,21
10918,-736,357,3831,210,-267,31
10928,-672,401,3907,257,-240,39
10938,-661,398,3972,240,-201,57
10948,-645,437,4029,248,-157,62
10958,-645,534,4094,211,-123,64
10968,-597,691,4116,138,-82,36
10978,-624,801,4044,51,-11,21
10988,-697,769,3971,16,26,29
10998,-718,609,3926,31,41,15
11008,-750,432,3883,64,49,9
11019,-700,324,3877,85,48,14
11029,-711,319,3903,121,63,42
11039,-686,397,3976,151,97,38
11049,-698,450,3986,177,147,32
11059,-751,513,4102,142,178,34
11069,-789,624,4136,96,185,16
11079,-784,687,4125,15,179,-4
11089,-733,700,4096,-51,169,-16
11099,-718,642,4077,-115,168,-31
11109,-693,566,4003,-155,157,-20
11119,-798,525,4037,-184,131,5
11129,-886,478,3999,-193,71,7
11139,-984,395,3962,-148,-6,-16
11149,-978,334,3876,-113,-64,-48
11159,-918,257,3792,-34,-109,-72
11169,-861,142,3639,100,-142,-63
11179,-766,72,3780,251,-126,-51
11189,-778,98,3935,310,-94,-1
11199,-742,310,4080,348,-96,-6
11209,-706,602,4202,304,-68,20
11220,-717,852,4197,217,-62,-2
11230,-727,1060,4141,78,-22,-25
11240,-773,1107,4042,-55,-2,-42
11250,-791,1033,3990,-151,-10,-49
11260,-745,818,4002,-223,-23,-58
11270,-685,592,3974,-263,-30,-55
11280,-643,418,3963,-264,-17,-42
11290,-692,305,3915,-241,15,-24
11300,-748,236,3849,-184,27,-2
11310,-827,180,3819,-110,14,25
11320,-839,163,3845,-21,-3,32
11330,-814,176,3874,60,-26,35
11340,-771,248,3939,134,-34,43
11350,-753,382,4016,143,-33,43
11360,-771,544,3986,138,-25,42
11370,-812,636,3972,132,-23,22
11380,-812,639,4015,119,-35,8
11390,-819,647,4015,84,-52,-10
11400,-768,679,4015,37,-64,-17
11410,-750,718,3995,-15,-71,-27
11421,-705,673,4045,-37,-59,-35
11431,-708,577,4014,-69,-51,-28
11441,-717,518,3989,-89,-34,-17
11451,-741,512,3989,-106,-40,-7
11461,-739,507,3918,-102,-37,-4
11471,-713,467,3895,-85,-34,-2
11481,-687,421,3897,-51,-23,15
11491,-686,416,3955,-42,-6,24
11501,-700,433,3996,-33,10,27
11511,-773,494,4005,-44,21,23
11521,-805,523,3987,-43,2,3
11531,-789,533,3981,-44,-19,-17
11541,-794,500,3921,-43,-32,-27
11551,-779,477,3928,-21,-34,-31
11561,-710,416,4010,5,-29,-23
11571,-675,394,4031,0,-17,-4
11581,-671,421,4045,0,4,15
11591,-693,485,4004,-9,20,29
11601,-719,563,3999,-25,31,22
11611,-723,575,3994,-37,27,34
11622,-742,544,3964,-54,23,37
11632,-730,542,3951,-65,24,23
11642,-746,527,3942,-70,24,20
11652,-734,535,3960,-74,34,8
11662,-741,497,3997,-91,30,13
11672,-747,507,4037,-116,35,15
11682,-726,535,4038,-158,45,8
11692,-717,538,3986,-197,55,4
11702,-713,510,3933,-228,86,9
11712,-775,453,3858,-234,100,18
11722,-827,440,3953,-239,104,33
11732,-832,448,4010,-248,81,35
11742,-839,418,3994,-234,60,21
11752,-820,313,3933,-172,29,-3
11762,-788,269,3866,-125,21,-16
11772,-771,275,3828,-69,8,-2
11782,-744,301,3842,-11,10,14
11792,-723,323,3908,56,10,18
11802,-674,364,4017,68,21,30
11812,-663,389,4097,66,60,47
11823,-712,464,4138,3,101,63
11833,-761,596,4107,-65,131,50
11843,-772,646,4110,-146,132,54
11853,-807,628,4052,-220,145,48
11863,-788,601,4082,-278,149,28
11873,-778,539,4056,-357,162,31
11883,-786,467,3991,-378,158,9
11893,-766,360,3982,-384,169,17
11903,-816,279,3855,-394,168,30
11913,-808,213,3962,-358,153,62
11923,-832,202,3933,-343,147,65
11933,-770,170,3971,-309,136,64
11943,-774,195,3948,-296,158,88
11953,-801,236,3921,-281,175,90
11963,-852,220,3876,-267,180,111
11973,-904,209,3914,-238,170,117
11983,-913,161,3931,-208,155,118
11993,-898,120,3928,-188,151,115
12003,-918,125,3905,-154,149,117
12013,-938,125,3911,-120,152,112
12024,-978,133,3929,-91,134,112
12034,-988,130,3911,-63,118,95
12044,-1004,141,3921,-40,104,85
12054,-1016,178,3944,-24,91,68
12064,-1036,204,3967,-12,70,60
12074,-1042,186,3909,9,55,46
12084,-1033,155,3906,33,38,22
12094,-1029,147,3930,50,31,2
12104,-1006,221,3900,55,34,-24
12114,-990,244,3897,77,26,-38
12124,-964,250,3954,84,12,-31
12134,-970,211,3942,86,5,-28
12144,-965,211,3989,83,8,-34
12154,-951,277,3972,65,2,-50
12164,-959,367,3958,55,3,-51
12174,-942,372,3953,45,-18,-48
12184,-953,318,3909,36,-41,-40
12194,-928,220,3892,58,-44,-34
12204,-909,175,3876,74,-43,-26
12214,-908,182,3906,90,-39,-12
12224,-919,219,3955,105,-31,-7
12234,-914,251,3952,100,-30,2
12244,-904,247,3939,104,-23,5
12254,-921,255,3949,113,-18,7
12264,-919,237,3979,103,-19,14
12275,-934,253,3972,100,-10,9
12285,-918,321,3951,90,-7,0
12295,-917,371,3974,80,-1,5
12305,-919,389,3956,64,-1,10
12315,-928,334,3945,71,5,7
12325,-936,271,3942,68,12,8
12335,-959,291,3938,61,10,5
12345,-952,343,3945,54,2,7
12355,-942,364,3939,42,5,13
12365,-948,354,3949,33,2,9
12375,-954,349,3939,24,3,10
12385,-955,310,3945,26,0,0
12395,-942,300,3950,28,-1,-4
12405,-927,282,3957,34,1,-6
12415,-929,278,3939,33,2,-7
12425,-933,281,3929,42,1,1
12435,-953,290,3910,52,0,5
12445,-937,309,3930,60,-2,4
12455,-921,359,3916,57,-1,8
12465,-946,410,3959,57,-6,13
12475,-966,409,3963,48,-14,11
12485,-969,376,3962,36,-27,8
12495,-963,353,3951,34,-26,1
12505,-934,347,3962,43,-19,-9
12515,-924,340,3972,42,-14,-5
12526,-922,352,3958,28,1,-14
12536,-930,376,3952,27,2,-11
12546,-926,345,3956,21,15,-9
12556,-905,347,3974,14,20,-10
12566,-909,382,3949,5,14,-12
12576,-925,378,3938,-1,15,-4
12586,-949,363,3926,2,11,-3
12596,-961,336,3907,-2,-1,2
12606,-973,324,3910,6,-14,4
12616,-950,314,3928,19,-20,0
12626,-958,323,3903,41,-25,-3
12636,-942,314,3906,57,-29,3
12646,-946,310,3920,75,-37,7
12656,-940,310,3930,86,-34,6
12666,-927,334,3922,103,-30,6
12676,-926,367,3965,98,-28,7
12686,-917,420,3953,89,-21,8
12696,-910,399,3946,88,-20,13
12706,-899,399,3963,69,-16,9
12716,-928,413,3954,59,-14,9
12726,-930,429,3971,37,-16,11
12736,-921,452,3945,25,-18,7
12746,-923,451,3959,17,-8,3
12756,-928,433,3970,4,-8,0
12766,-919,438,3945,-14,-6,3
12777,-911,422,3951,-18,-7,3
12787,-931,394,3963,-21,-7,0
12797,-920,404,3941,-30,-6,3
12807,-932,406,3926,-25,-13,5
12817,-958,397,3910,-21,-17,0
12827,-948,364,3918,-10,-27,-3
12837,-934,342,3948,10,-33,5
12847,-926,353,3932,25,-33,1
12857,-915,375,3922,30,-32,3
12867,-929,398,3936,31,-34,-1
12877,-925,398,3947,30,-35,1
12887,-927,410,3942,36,-37,7
12897,-915,433,3964,21,-38,4
12907,-922,455,3952,10,-43,2
12917,-921,447,3964,14,-35,-6
12927,-903,392,3962,11,-34,-5
12937,-903,394,3983,16,-30,-6
12947,-897,414,3950,9,-24,-8
12957,-881,439,3957,-1,-24,-10
12967,-896,456,3949,-4,-16,-10
12977,-897,441,3978,-9,-12,-9
12987,-902,416,3939,-21,-12,-8
12997,-892,403,3955,-26,-11,-12
13007,-905,408,3937,-24,-11,-6
13017,-908,382,3923,-15,-11,2
13028,-916,355,3941,-2,-20,4
13038,-914,353,3940,9,-20,-2
13048,-885,390,3930,12,-21,10
13058,-892,430,3935,23,-20,11
13068,-890,424,3973,27,-16,1
13078,-898,425,3956,25,-16,7
13088,-910,419,3941,16,-13,10
13098,-890,429,3942,21,-9,9
13108,-912,412,3947,18,-8,6
13118,-903,428,3948,17,-8,4
13128,-908,435,3955,15,-9,-5
13138,-921,438,3923,14,-10,2
13148,-909,426,3929,16,-17,1
13158,-904,418,3934,18,-21,4
13168,-914,395,3955,22,-30,1
13178,-914,438,3951,15,-34,5
13188,-894,429,3929,21,-35,-4
13198,-868,412,3931,34,-34,-8
13208,-879,390,3960,27,-23,1
13218,-866,397,3963,38,-19,7
13229,-866,446,3953,26,-14,4
13239,-890,468,3970,27,-7,7
13249,-868,478,3975,12,-5,8
13259,-894,488,3966,7,-5,2
13269,-883,478,3971,-12,-11,1
13279,-891,468,3942,-19,-9,-5
13289,-879,452,3942,-29,-12,-4
13299,-881,431,3921,-22,-11,0
13309,-891,383,3947,-8,-10,1
13319,-890,371,3948,-11,-7,0
13329,-892,390,3933,5,1,2
13339,-871,409,3952,20,2,6
13349,-899,411,3972,19,1,5
13359,-898,447,3967,17,-2,7
13369,-888,450,3929,11,2,4
13379,-893,449,3946,29,-4,2
13389,-891,444,3957,17,-8,-3
13399,-867,468,3978,12,-8,-3
13409,-875,464,3970,14,-11,-2
13419,-878,419,3949,17,-5,-3
13430,-898,432,3954,18,-4,-5
13440,-883,455,3940,9,-6,-2
13450,-881,467,3940,7,-5,1
13460,-887,461,3921,11,-1,3
13470,-889,432,3949,16,1,1
13480,-914,451,3970,5,-2,-3
13490,-902,474,3954,4,-12,0
13500,-902,478,3950,3,-9,1
13510,-910,481,3962,4,-12,-1
13520,-899,484,3945,0,-14,-2
13530,-873,489,3937,-8,-19,-8
13540,-878,433,3931,2,-13,-3
13550,-895,399,3944,13,-15,-2
13560,-884,419,3951,11,-15,-6
13570,-890,455,3947,11,-19,-4
13580,-874,450,3943,19,-15,-6
13590,-892,442,3940,27,-15,-4
13600,-890,427,3924,28,-15,-1
13610,-889,437,3947,30,-18,-4
13620,-886,444,3941,31,-15,-6
13631,-879,474,3970,28,-15,-2
13641,-885,491,3949,24,-18,-2
13651,-869,465,3936,24,-16,-2
13661,-871,463,3962,22,-13,-3
13671,-854,472,3966,15,-10,0
13681,-869,475,3961,15,-5,4
13691,-866,479,3971,11,-5,6
13701,-864,471,3953,11,0,10
13711,-887,502,3951,7,2,10
13721,-870,486,3946,6,2,12
13731,-872,482,3937,2,4,9
13741,-900,477,3960,1,-1,12
13751,-897,486,3957,-5,-1,0
13761,-902,491,3925,-6,-6,-1
13771,-890,482,3952,-6,-8,1
13781,-883,465,3946,-2,-6,-2
13791,-874,469,3944,-5,-5,-1
13801,-879,468,3940,3,0,-6
13811,-870,471,3955,-6,0,-1
13821,-876,491,3964,-10,3,-3
13832,-866,487,3952,-15,-1,-4
13842,-878,483,3935,-13,3,4
13852,-876,465,3945,-13,8,3
13862,-891,473,3941,-12,6,1
13872,-884,469,3949,-13,0,0
13882,-893,460,3937,-8,2,2
13892,-875,455,3944,-10,0,5
13902,-874,485,3960,-13,4,4
13912,-897,474,3941,-14,6,4
13922,-877,487,3927,-12,-3,2
13932,-884,473,3945,-9,1,7
13942,-879,481,3935,-15,-2,5
13952,-888,458,3952,-9,0,0
13962,-896,476,3929,-11,-4,-4
13972,-870,472,3921,-4,-3,-2
13982,-873,473,3958,2,-5,-4
13992,-883,453,3958,-4,-6,3
14002,-888,477,3945,1,-6,-2
14012,-890,477,3950,0,-5,-2
14022,-880,465,3950,-2,-5,-4
14038,-870,479,3958,-2,1,-7
14048,-867,476,3963,-7,5,-1
14058,-892,497,3951,-9,-1,-4
14068,-881,488,3947,-10,1,-6
14078,-882,499,3927,-14,2,-8
14088,-881,474,3960,-4,-3,1
14098,-899,456,3917,-3,-11,-1
14108,-898,481,3946,1,-14,-1
14118,-903,495,3933,3,-31,1
14128,-904,461,3950,16,-33,-1
14138,-889,452,3953,14,-37,0
14148,-877,458,3944,13,-39,3
14158,-890,450,3919,22,-40,4
14168,-882,461,3919,40,-46,2
14178,-859,481,3924,44,-45,6
14188,-862,516,3980,28,-32,4
14198,-845,552,4011,10,-27,-2
14208,-855,581,4003,-9,-25,-3
14218,-863,573,3976,-37,-17,-5
14228,-850,576,3970,-66,-19,-10
14238,-866,535,3947,-87,-18,5
14248,-849,475,3952,-92,-13,8
14258,-833,425,3973,-98,-9,25
14268,-837,412,3984,-122,-8,46
14278,-846,501,3989,-149,-5,55
14288,-847,573,4002,-184,-24,59
14298,-791,528,3999,-173,4,29
14308,-788,401,4010,-177,18,41
14318,-888,334,3941,-195,29,66
14328,-907,387,3922,-177,38,60
14338,-921,363,3879,-142,28,33
14348,-899,293,3897,-92,23,28
14358,-868,263,3899,-52,25,42
14368,-868,359,3953,-22,25,50
14378,-890,426,3920,-29,33,46
14388,-912,533,3924,-40,42,42
14398,-899,543,3971,-37,47,33
14408,-875,491,3967,-50,43,11
14418,-844,434,3983,-75,48,28
14428,-859,396,3921,-75,51,35
14438,-883,362,3887,-46,50,33
14448,-911,343,3873,-11,38,23
14458,-908,335,3863,33,36,12
14468,-888,297,3861,79,28,8
14478,-885,300,3901,124,18,14
14488,-873,389,3982,135,18,12
14498,-862,428,3927,165,15,-18
14508,-884,469,3922,181,11,-30
14518,-919,537,3951,158,7,-24
14528,-925,599,3946,154,-16,-43
14538,-933,579,3967,137,-23,-50
14548,-963,524,3943,121,-40,-70
14558,-973,470,3963,104,-64,-80
14568,-952,459,4011,91,-79,-81
14578,-936,475,3988,58,-88,-79
14588,-883,539,3980,42,-85,-86
14598,-847,567,3960,21,-85,-66
14608,-827,517,3920,18,-79,-42
14618,-834,403,3898,25,-73,-10
14628,-818,321,3899,46,-69,19
14638,-853,353,3787,77,-75,43
14648,-783,368,4010,153,-68,56
14658,-814,496,4074,25,-24,88
14668,-812,899,4189,-70,1,57
14678,-865,1082,4138,-181,24,63
14688,-913,865,4039,-243,9,29
14698,-859,611,4002,-322,20,-4
14708,-815,458,3953,-368,27,8
14718,-809,402,3956,-373,35,18
14728,-847,327,3878,-339,54,15
14738,-899,228,3852,-279,58,19
14748,-914,154,3843,-217,45,22
14758,-933,185,3855,-161,35,29
14768,-927,302,3876,-121,36,31
14778,-908,395,3865,-71,20,16
14788,-908,360,3863,-28,8,17
14798,-912,231,3868,38,-6,17
14808,-923,180,3895,89,-17,18
14818,-904,234,3917,126,-24,17
14828,-881,328,3942,156,-32,13
14838,-871,434,3956,165,-33,14
14848,-866,488,3975,156,-28,1
14858,-853,516,3980,138,-23,-5
14868,-844,549,3996,110,-10,1
14878,-843,516,3991,89,-4,-5
14888,-841,501,3988,70,12,-10
14898,-869,457,3954,65,18,2
14908,-887,411,3968,60,20,-4
14918,-876,414,3950,65,9,-5
14928,-872,452,3927,69,6,4
14938,-863,428,3951,113,-13,10
14948,-859,362,3974,105,0,5
14958,-861,421,3961,100,4,2
14968,-847,540,3946,75,19,-2
14978,-867,590,3942,79,17,-20
14988,-889,552,3942,65,18,-28
14998,-931,507,3970,44,3,-19
15008,-896,508,3982,28,-2,-23
15018,-879,528,4000,21,-2,-23
15028,-854,487,3971,24,6,-31
15038,-848,457,3937,19,10,-23
15048,-881,433,3917,26,10,-18
15058,-886,433,3922,55,12,-19
15068,-883,434,3897,60,6,-17
15078,-890,452,3899,86,-10,-19
15088,-908,465,3908,99,-17,-15
15098,-936,499,3928,103,-32,-10
15108,-949,495,3950,105,-47,-14
15118,-924,516,3945,91,-63,-27
15128,-866,568,3941,83,-68,-36
15138,-844,544,3924,83,-65,-28
15148,-822,490,3944,93,-57,-8
15158,-832,428,3954,105,-52,6
15168,-862,445,3954,101,-50,16
15178,-855,531,3935,99,-61,20
15188,-854,609,3931,127,-72,20
15198,-840,630,4047,74,-62,35
15208,-847,746,4071,-6,-42,26
15218,-823,863,4098,-88,-23,11
15228,-824,860,4039,-166,-8,8
15239,-813,748,4013,-222,11,-14
15249,-804,618,3996,-281,23,-2
15259,-808,514,3974,-306,30,12
15269,-819,423,3940,-307,39,14
15279,-832,365,3871,-281,48,21
15289,-851,307,3878,-243,52,34
15299,-881,286,3861,-183,45,36
15309,-879,292,3890,-130,45,33
15319,-886,326,3875,-75,37,39
15329,-899,353,3879,-31,27,42
15339,-924,396,3896,12,12,35
15349,-923,419,3915,36,4,21
15359,-901,458,3947,48,-9,17
15369,-870,473,3955,56,-12,11
15379,-860,496,3957,52,-9,4
15389,-855,508,3948,45,-9,2
15399,-856,527,3969,37,-6,4
15409,-855,534,3982,21,1,1
15419,-839,497,3950,14,-2,-6
15429,-831,518,3954,2,8,2
15440,-847,501,3950,-8,14,16
15450,-867,465,3947,-9,23,6
15460,-871,445,3933,-3,23,15
15470,-888,449,3947,0,22,13
15480,-882,453,3928,10,20,9
15490,-897,470,3898,20,17,9
15500,-901,452,3939,40,13,11
15510,-887,455,3943,51,6,6
15520,-870,482,3909,41,11,20
15530,-832,472,3953,93,-1,7
15540,-846,351,3950,109,9,23
15550,-884,407,3953,109,14,23
15560,-903,592,3983,87,11,12
15570,-904,718,3958,64,12,-1
15580,-883,688,3974,50,17,-17
15590,-859,591,3967,31,17,-25
15600,-849,515,3993,8,30,-20
15610,-854,513,3990,-18,32,-18
15620,-880,548,3971,-29,33,-23
15630,-879,572,3953,-49,40,-19
15641,-877,569,3923,-58,40,-16
15651,-895,540,3951,-62,40,-10
15661,-898,494,3964,-73,35,-10
15671,-919,486,3936,-70,29,-5
15681,-912,479,3915,-65,11,2
15691,-914,449,3896,-51,2,-9
15701,-903,451,3892,-28,-3,-7
15711,-920,407,3894,3,-13,3
15721,-898,425,3931,23,-23,2
15731,-918,454,3905,40,-18,6
15741,-926,485,3925,60,-26,0
15751,-893,490,3933,70,-26,-3
15761,-891,504,3984,70,-26,-4
15771,-869,500,3984,65,-23,-12
15781,-850,516,3968,53,-18,-6
15791,-852,550,3976,31,-13,4
15801,-850,609,3988,1,-5,1
15811,-856,627,4000,-19,-2,-6
15821,-879,661,4008,-66,6,-17
15831,-851,678,4001,-106,10,-19
15842,-837,663,3994,-151,25,-21
15852,-828,635,3974,-194,42,-13
15862,-841,579,3984,-229,56,-5
15872,-859,479,3950,-245,65,2
15882,-882,403,3957,-244,66,15
15892,-900,350,3894,-225,72,18
15902,-921,348,3892,-190,76,23
15912,-945,345,3898,-155,64,25
15922,-959,319,3902,-120,54,22
15932,-961,320,3920,-84,32,13
15942,-967,380,3903,-64,23,5
15952,-937,446,3944,-54,15,-3
15962,-912,500,3988,-57,7,-7
15972,-900,475,4028,-74,3,-13
15982,-878,485,4035,-111,3,-14
15992,-861,513,4094,-171,12,-8
16002,-869,537,4148,-234,23,-5
16012,-861,519,4225,-300,36,-17
16022,-851,486,4265,-401,45,-10
16032,-831,530,4270,-535,50,-3
16048,-813,600,4362,-673,70,-20
16058,-749,665,4543,-886,49,19
16068,-804,585,4513,-1129,77,1
16078,-819,439,4417,-1341,119,-136
16088,-875,247,4342,-1535,64,-183
16098,-865,23,4232,-1634,52,-314
16108,-1006,-121,4201,-1843,19,-515
16118,-969,169,4414,-2434,-97,-869
16128,-976,111,3795,-2708,233,-772
16138,-1895,-714,3995,-1773,448,-2
16148,-2419,-1365,4262,-1488,548,100
16158,-2183,-1152,4077,-1337,374,-96
16168,-1604,-757,3996,-971,319,-143
16178,-1361,-570,4162,-867,392,-54
16188,-1516,-490,4137,-973,519,-2
16198,-1766,-614,4102,-1041,564,8
16208,-1899,-923,4119,-1028,560,28
16218,-1923,-1141,4037,-918,556,46
16228,-1861,-1188,3925,-665,547,46
16238,-1778,-1091,3875,-375,528,47
16248,-1724,-955,3884,-164,504,36
16258,-1685,-704,3870,-113,488,28
16268,-1689,-506,3847,-134,482,17
16278,-1673,-447,3745,-242,482,11
16288,-1719,-470,3403,-366,454,-30
16298,-1733,-528,3183,-414,402,-76
16308,-1628,-731,3236,-348,281,-56
16318,-1812,-957,2849,-351,226,-71
16328,-1678,-1011,3009,-158,155,-162
16338,-1533,-879,3202,-58,135,-220
16348,-1494,-696,3258,-50,98,-212
16358,-1456,-578,3365,-83,59,-252
16368,-1393,-574,3385,-233,3,-310
16378,-1293,-462,3209,-489,-37,-333
16388,-1164,-440,3107,-587,-42,-326
16398,-1005,-627,3073,-569,-66,-320
16408,-916,-789,3136,-673,-76,-292
16418,-835,-877,3033,-667,-92,-311
16428,-751,-1063,3094,-511,-84,-320
16438,-708,-1228,3200,-358,-56,-319
16448,-664,-1262,3298,-193,-39,-324
16458,-636,-1197,3409,-46,-43,-320
16468,-635,-1076,3473,18,-48,-311
16478,-667,-981,3486,-9,-62,-301
16488,-704,-937,3540,-109,-52,-297
16498,-769,-920,3542,-207,-61,-293
16508,-778,-955,3493,-257,-63,-290
16518,-812,-1005,3524,-237,-70,-284
16528,-799,-1060,3633,-185,-71,-275
16538,-828,-1087,3678,-52,-84,-277
16548,-831,-1131,3762,92,-87,-291
16558,-883,-1117,3762,170,-78,-284
16568,-947,-1047,3808,241,-54,-273
16578,-992,-972,3869,269,-39,-280
16588,-967,-927,3993,256,-33,-292
16598,-874,-865,4036,175,-14,-295
16608,-755,-794,3957,123,26,-312
16618,-695,-774,3873,107,84,-331
16628,-696,-789,3812,89,158,-361
16638,-756,-891,3753,92,224,-392
16648,-886,-995,3591,145,290,-433
16658,-1065,-1042,3509,240,340,-467
16668,-1234,-980,3569,273,381,-484
16678,-1392,-883,3711,251,388,-498
16688,-1443,-849,3830,160,367,-500
16698,-1402,-862,3921,-3,327,-500
16708,-1342,-879,3817,-175,291,-508
16718,-1320,-846,3674,-296,270,-517
16728,-1374,-799,3614,-406,249,-513
16738,-1433,-806,3507,-504,221,-485
16748,-1456,-937,3455,-536,180,-465
16758,-1386,-1132,3491,-526,143,-436
16768,-1252,-1288,3474,-446,110,-434
16778,-1114,-1338,3543,-326,81,-429
16788,-1003,-1274,3576,-216,61,-429
16798,-926,-1177,3651,-123,48,-415
16808,-924,-1081,3664,-148,32,-376
16818,-978,-983,3586,-218,16,-355
16828,-1052,-949,3476,-274,-8,-347
16838,-1111,-1065,3369,-265,-24,-353
16848,-1148,-1290,3367,-196,-42,-358
16858,-1092,-1477,3461,-52,-69,-405
16868,-999,-1527,3624,71,-57,-424
16878,-1002,-1427,3793,176,-48,-422
16888,-1051,-1375,4098,236,-17,-425
16898,-1104,-1431,4351,173,-4,-375
16908,-1101,-1568,4391,37,-10,-322
16918,-1052,-1664,4242,-65,-5,-287
16928,-985,-1690,3972,-46,-7,-247
16938,-1008,-1691,3780,59,25,-205
16948,-1069,-1616,3745,151,28,-176
16958,-1120,-1442,3742,214,23,-146
16968,-1189,-1277,3786,270,-1,-138
16978,-1216,-1227,3887,302,-47,-128
16988,-1214,-1274,4043,312,-97,-102
16998,-1174,-1320,4073,294,-158,-74
17008,-1158,-1298,4024,359,-199,-55
17018,-1140,-1254,3913,410,-237,-34
17028,-1139,-1213,3688,446,-260,-24
17038,-1159,-1195,3507,511,-292,-7
17048,-1131,-1257,3410,612,-315,-12
17058,-1039,-1293,3365,641,-337,-9
17068,-929,-1306,3350,654,-312,2
17078,-855,-1316,3479,644,-288,35
17088,-805,-1282,3620,592,-262,38
17098,-783,-1178,3716,532,-238,39
17108,-849,-1056,3737,461,-210,44
17118,-877,-936,3684,411,-185,18
17128,-906,-881,3568,455,-145,-39
17138,-898,-876,3512,495,-114,-82
17148,-941,-829,3452,504,-66,-93
17158,-1024,-641,3411,460,-25,-68
17168,-1080,-368,3316,317,-15,-61
17178,-1092,-255,3221,184,-25,-101
17188,-1055,-236,3152,-7,-50,-133
17198,-1041,-214,3111,-201,-67,-133
17208,-1065,-155,2919,-406,-57,-119
17218,-1077,-218,2897,-575,-66,-144
17228,-998,-533,3377,-691,-62,-185
17238,-783,-1148,4451,-689,-4,-176
17248,-690,-1906,5060,-659,16,-63
17258,-731,-2319,4709,-592,-22,-15
17268,-764,-2411,4438,-299,-10,-46
17278,-799,-2259,4281,-103,8,20
17288,-1064,-1963,3848,-60,55,113
17299,-1262,-1589,3603,-31,56,113
17309,-1288,-1132,3390,51,-13,52
17319,-1151,-852,3573,226,-53,39
17329,-1007,-748,3976,259,-63,89
17339,-1021,-683,4154,199,-64,102
17349,-1040,-875,4019,149,-65,101
17359,-1130,-1199,3915,64,-65,97
17369,-1141,-1251,3804,10,-62,48
17379,-1072,-969,3809,67,-56,-23
17389,-1037,-679,3977,48,-42,-44
17399,-1017,-553,4046,-150,-56,-40
17409,-955,-629,3755,-410,-66,-54
17419,-879,-836,3543,-521,-40,-103
17429,-779,-1139,3612,-559,-5,-105
17439,-778,-1370,3698,-599,34,-90
17449,-761,-1459,3793,-575,48,-101
17459,-731,-1489,3841,-492,80,-87
17469,-783,-1446,3794,-441,104,-76
17479,-897,-1316,3752,-438,138,-70
17489,-994,-1184,3723,-471,156,-67
17499,-1056,-1119,3645,-539,155,-70
17509,-1061,-1118,3606,-596,123,-95
17519,-1040,-1103,3582,-597,97,-134
17529,-960,-1225,3629,-556,84,-140
17539,-946,-1411,3666,-523,73,-130
17550,-929,-1550,3627,-484,65,-124
17560,-955,-1580,3597,-376,57,-126
17570,-997,-1560,3640,-315,61,-125
17580,-1064,-1485,3678,-307,41,-116
17590,-1088,-1402,3656,-348,18,-119
17600,-1098,-1369,3502,-366,-18,-137
17610,-1017,-1398,3404,-380,-36,-128
17620,-911,-1562,3630,-391,-27,-109
17630,-832,-1740,3696,-441,-31,-63
17640,-850,-1779,3582,-379,-11,-43
17650,-932,-1736,3450,-169,-17,-39
17660,-987,-1655,3481,19,-6,-45
17670,-1017,-1514,3647,93,0,-33
17680,-1027,-1390,3749,32,-2,-37
17690,-1032,-1400,3705,-54,-22,-51
17700,-989,-1526,3646,-116,-25,-54
17710,-949,-1649,3580,-143,-14,-44
17720,-958,-1643,3505,-115,-18,-38
17730,-974,-1521,3502,-82,-16,-59
17740,-944,-1445,3487,-66,-21,-57
17750,-938,-1471,3458,-69,-32,-29
17760,-938,-1569,3522,-52,-32,-19
17770,-923,-1657,3602,-47,-49,-11
17780,-982,-1630,3568,-3,-92,-19
17790,-950,-1600,3546,62,-105,-39
17801,-936,-1630,3619,149,-107,-1
17811,-930,-1695,3660,153,-103,28
17821,-940,-1707,3637,127,-88,30
17831,-937,-1647,3673,137,-77,7
17841,-944,-1563,3642,112,-68,-1
17851,-978,-1495,3551,70,-82,6
17861,-1004,-1539,3456,143,-98,2
17871,-1013,-1647,3533,198,-130,-2
17881,-999,-1692,3447,276,-156,-23
17891,-908,-1625,3586,372,-174,-52
17901,-802,-1408,3871,341,-139,-64
17911,-790,-1217,3770,297,-112,-77
17921,-808,-1057,3763,142,-56,-96
17931,-772,-1065,3754,16,-51,-67
17941,-743,-1269,3785,-105,-29,-15
17951,-726,-1450,3686,-149,-15,-1
17961,-700,-1472,3523,-150,8,14
17971,-750,-1545,3551,-48,34,19
17981,-797,-1463,3748,-199,41,43
17991,-887,-1295,3507,-319,77,-9
18001,-829,-1349,3681,-272,69,11
18011,-899,-1410,3660,-425,81,22
18021,-917,-1408,3528,-514,57,25
18031,-959,-1474,3572,-449,53,5
18041,-995,-1629,3524,-344,10,15
18052,-968,-1803,3429,-178,-21,24
18062,-916,-1852,3560,-12,-88,55
18072,-887,-1863,3585,119,-117,85
18082,-906,-1817,3700,217,-151,88
18092,-894,-1710,3684,225,-169,91
18102,-897,-1641,3718,232,-202,134
18112,-964,-1634,3612,186,-219,144
18122,-951,-1734,3579,200,-244,126
18132,-971,-1791,3418,172,-276,144
18142,-1010,-1745,3252,256,-298,120
18152,-937,-1581,3138,475,-299,53
18162,-774,-1465,3425,697,-253,29
18172,-587,-1201,4084,576,-157,32
18182,-529,-746,4143,291,-75,-13
18192,-513,-524,4050,108,38,-74
18202,-589,-639,4076,-181,124,-61
18212,-760,-897,3839,-510,179,-10
18222,-903,-1272,3611,-620,185,-11
18232,-922,-1631,3459,-572,160,-30
18242,-862,-1828,3408,-446,121,-35
18253,-817,-1858,3476,-307,108,-39
18263,-823,-1795,3560,-217,118,-64
18273,-862,-1665,3553,-164,113,-81
18283,-912,-1616,3580,-67,81,-94
18293,-919,-1621,3525,-71,34,-54
18303,-896,-1692,3383,-63,16,-45
18313,-813,-1670,3488,-59,2,-43
18323,-797,-1534,3453,52,41,-63
18333,-795,-1423,3945,116,47,-20
18343,-843,-1160,3958,-182,57,-15
18353,-823,-1105,3821,-248,87,-65
18363,-804,-1422,3845,-201,84,-40
18373,-906,-1688,3616,-209,47,22
18383,-1008,-1747,3503,-50,-34,49
18393,-1034,-1806,3468,139,-118,64
18403,-993,-1922,3517,258,-151,71
18413,-999,-1985,3423,370,-190,91
18423,-1061,-2017,3362,495,-221,108
18433,-1045,-1934,3390,562,-252,91
18443,-959,-1787,3484,611,-235,40
18454,-792,-1496,3758,539,-192,11
18464,-674,-1079,3922,471,-133,1
18474,-641,-820,3964,385,-89,-14
18484,-651,-767,3830,223,-85,-32
18494,-611,-828,3804,34,-52,-27
18504,-636,-1083,3825,-14,13,4
18514,-748,-1335,3739,-126,30,30
18524,-774,-1382,3559,-260,38,-11
18534,-734,-1530,3646,-172,64,5
18544,-782,-1520,3522,-236,72,37
18554,-793,-1433,3450,-168,94,25
18564,-821,-1403,3537,-136,79,23
18574,-834,-1345,3538,-201,75,20
18584,-799,-1263,3451,-242,76,12
18594,-779,-1283,3459,-210,95,-5
18604,-741,-1364,3559,-205,118,0
18614,-724,-1475,3665,-231,145,1
18624,-749,-1606,3684,-243,128,-1
18634,-839,-1632,3670,-174,149,-28
18644,-912,-1617,3553,-25,137,-43
18655,-988,-1720,3533,135,172,-52
18665,-1058,-1823,3680,114,172,-74
18675,-1084,-1792,3689,66,177,-127
18685,-1043,-1694,3832,178,182,-162
18695,-989,-1424,3999,213,210,-201
18705,-955,-1162,3982,186,236,-223
18715,-987,-1095,3985,34,273,-233
18725,-999,-1103,3885,-247,274,-228
18735,-972,-1155,3671,-391,271,-226
18745,-921,-1373,3650,-473,259,-221
18755,-873,-1557,3565,-555,246,-198
18765,-860,-1713,3562,-498,236,-174
18775,-900,-1788,3481,-385,202,-149
18785,-932,-1845,3380,-278,172,-130
18795,-1029,-1807,3381,-186,140,-113
18805,-1102,-1692,3436,-146,95,-137
18815,-1119,-1607,3462,-117,35,-127
18825,-1118,-1648,3518,-123,-30,-120
18835,-1116,-1735,3560,-161,-94,-119
18845,-1080,-1774,3627,-119,-135,-118
18856,-1003,-1767,3580,-105,-187,-131
18866,-906,-1724,3358,-125,-204,-126
18876,-744,-1629,3241,-51,-159,-59
18886,-587,-1988,3446,529,-159,37
18896,-618,-2144,3554,612,-147,115
18906,-586,-1640,3374,625,-115,76
18916,-583,-1276,3523,746,-86,93
18926,-718,-986,3677,478,-25,103
18936,-812,-811,3644,203,10,72
18946,-797,-862,3641,19,19,36
18956,-730,-1033,3616,-119,14,5
18966,-755,-1246,3596,-190,25,11
18976,-823,-1373,3703,-232,36,-7
18986,-860,-1394,3673,-231,29,-23
18996,-836,-1434,3780,-310,30,3
19006,-845,-1545,3663,-365,4,61
19016,-910,-1756,3595,-346,0,106
19026,-948,-1926,3598,-247,-12,134
19036,-967,-1954,3652,-131,-34,163
19046,-941,-1772,3784,-24,-47,188
19057,-967,-1610,3807,6,-57,192
19067,-1002,-1497,3755,-52,-45,184
19077,-1040,-1525,3591,-74,-32,196
19087,-1102,-1689,3485,-70,-34,219
19097,-1086,-1908,3398,-29,-72,234
19107,-1059,-1937,3240,15,-126,217
19117,-997,-1791,3211,166,-136,149
19127,-954,-1565,3447,310,-142,77
19137,-958,-1257,3539,348,-139,4
19147,-920,-1144,3616,374,-139,-43
19157,-890,-1289,3671,312,-133,-27
19167,-888,-1536,3736,175,-135,-6
19177,-855,-1697,3756,51,-145,-11
19187,-854,-1780,3581,31,-177,-10
19197,-825,-1739,3679,73,-151,2
19207,-792,-1661,3785,143,-54,15
19217,-826,-1481,3918,206,7,52
19227,-809,-1219,3931,185,43,47
19237,-849,-1153,3914,41,67,62
19247,-958,-1071,3792,-217,97,35
19257,-986,-1089,3553,-353,87,-12
19267,-1007,-1261,3547,-412,67,-10
19277,-972,-1418,3435,-488,11,-13
19287,-918,-1624,3311,-401,-19,-42
19297,-861,-1809,3328,-231,-48,-72
19308,-837,-1959,3372,-88,-61,-61
19318,-849,-1916,3241,0,-101,7
19328,-832,-1898,3462,154,-110,18
19338,-804,-1765,3605,119,-108,36
19348,-705,-1553,3744,95,-75,30
19358,-732,-1349,3788,66,-33,23
19368,-741,-1300,3867,139,-10,48
19378,-825,-1307,3921,109,-10,96
19388,-946,-1236,3889,30,-39,123
19398,-990,-1215,3737,-3,-72,125
19408,-988,-1357,3688,-9,-97,115
19418,-1024,-1573,3567,0,-124,117
19428,-1054,-1830,3450,117,-176,119
19438,-1044,-1988,3437,231,-215,109
19448,-1020,-2002,3563,368,-231,71
19458,-966,-1774,3409,467,-231,17
19468,-854,-1568,3395,682,-219,-31
19478,-690,-1319,4001,573,-145,4
19488,-593,-897,4101,271,-90,23
19498,-598,-679,3934,38,-19,-13
19508,-608,-892,3903,-118,49,10
19518,-769,-1211,3756,-389,88,80
19528,-901,-1331,3494,-473,98,37
19538,-855,-1457,3531,-401,102,-26
19548,-814,-1461,3531,-462,92,-40
19559,-754,-1440,3440,-441,94,-45
19569,-768,-1540,3479,-393,112,-45
19579,-861,-1625,3320,-366,85,-46
19589,-901,-1684,3312,-230,68,-68
19599,-859,-1787,3502,-163,40,-49
19609,-838,-1842,3514,-169,28,-51
19619,-755,-1762,3466,-122,1,-43
19629,-754,-1733,3588,-9,50,-30
19639,-794,-1676,3848,-39,28,37
19649,-951,-1537,3594,-134,52,-11
19659,-876,-1555,3666,-13,44,3
19669,-886,-1581,3754,15,75,15
19679,-839,-1468,3639,45,85,3
19689,-799,-1307,3783,53,113,-25
19699,-810,-1117,3715,-17,109,-50
19709,-836,-1156,3756,-104,117,-34
19719,-922,-1239,3670,-214,107,-19
19729,-954,-1424,3538,-220,64,-31
19739,-943,-1690,3467,-175,28,-21
19749,-923,-1870,3434,-119,8,-4
19759,-904,-1909,3451,-51,-2,-16
19769,-855,-1804,3500,26,-1,-24
19779,-827,-1797,3679,112,13,2
19789,-909,-1735,3714,-2,11,35
19799,-925,-1565,3478,50,17,1
19810,-926,-1542,3580,200,12,-6
19820,-919,-1465,3541,103,10,5
19830,-890,-1367,3481,62,25,-15
19840,-866,-1439,3612,46,40,-35
19850,-866,-1542,3663,-10,41,-44
19860,-870,-1621,3720,-40,51,-43
19870,-865,-1626,3790,-25,69,-38
19880,-882,-1624,3778,6,88,-30
19890,-911,-1627,3708,45,102,-5
19900,-953,-1606,3660,70,101,-6
19910,-956,-1536,3542,66,83,-11
19920,-933,-1440,3436,37,67,-16
19930,-941,-1365,3267,15,27,-25
19940,-938,-1396,3331,18,-2,-40
19950,-860,-1441,3525,-33,-21,-49
19960,-792,-1543,3728,-63,-36,-34
19970,-866,-1652,3583,-81,-61,-29
19980,-937,-1690,3504,35,-76,-40
19990,-917,-1787,3909,143,-40,4
20000,-917,-1833,3700,177,-62,42
20010,-907,-1712,3536,324,-36,26
20020,-811,-1485,3636,383,-52,24
20030,-818,-1354,3820,306,22,57
20040,-912,-1320,3822,50,21,64
20050,-963,-1247,3655,-89,41,4
20061,-921,-1384,3672,-26,42,-3
20071,-976,-1524,3622,-31,46,14
20081,-967,-1522,3598,-66,45,-7
20091,-932,-1454,3552,-37,31,-26
20101,-911,-1398,3513,-30,12,-28
20111,-888,-1364,3485,-91,3,-26
20121,-849,-1397,3382,-132,-11,-36
20131,-800,-1461,3429,-126,-14,-36
20141,-775,-1528,3518,-97,-17,-34
20151,-763,-1556,3589,-50,-14,-15
20161,-810,-1658,3569,6,2,12
20171,-847,-1779,3739,65,39,40
20181,-941,-1800,3781,85,34,50
20191,-1023,-1640,3796,54,40,40
20201,-1037,-1494,3770,0,35,37
20211,-1038,-1395,3749,-57,34,42
20221,-1016,-1321,3707,-87,25,36
20231,-995,-1322,3624,-80,29,31
20241,-973,-1421,3634,-70,11,32
20251,-971,-1452,3666,-121,3,21
20262,-949,-1471,3565,-126,-22,8
20272,-932,-1553,3560,-110,-39,-7
20282,-894,-1575,3540,-110,-44,-4
20292,-861,-1582,3490,-45,-43,-13
20302,-854,-1607,3525,-2,-48,11
20312,-842,-1605,3496,33,-47,30
20322,-806,-1580,3571,71,-27,39
20332,-817,-1532,3649,63,-15,49
20342,-864,-1474,3660,23,-15,47
20352,-896,-1446,3649,-22,-4,49
20362,-937,-1495,3683,-45,-1,51
20372,-985,-1511,3592,-49,-10,34
20382,-1001,-1539,3548,-17,-26,17
20392,-989,-1565,3576,-3,-39,19
20402,-943,-1587,3594,-6,-36,11
20412,-911,-1559,3593,20,-31,0
20422,-879,-1527,3648,17,-31,-7
20432,-906,-1493,3650,-8,-35,7
20442,-898,-1506,3621,-37,-34,5
20452,-900,-1531,3556,-19,-40,-3
20463,-878,-1555,3604,45,-45,-4
20473,-871,-1553,3644,52,-51,15
20483,-897,-1584,3668,43,-44,28
20493,-912,-1556,3711,35,-42,27
20503,-922,-1530,3631,42,-41,14
20513,-940,-1485,3646,65,-41,23
20523,-940,-1456,3666,50,-37,26
20533,-907,-1484,3691,33,-37,14
20543,-894,-1503,3602,19,-47,3
20553,-910,-1499,3550,85,-43,-1
20563,-937,-1506,3542,134,-53,-8
20573,-960,-1552,3536,167,-60,-16
20583,-947,-1603,3564,195,-69,-18
20593,-920,-1571,3648,197,-54,-15
20603,-889,-1413,3561,171,-58,-27
20613,-806,-1265,3457,177,-88,-45
20623,-713,-1240,3788,105,-4,-45
20633,-672,-1342,3890,5,64,-10
20643,-697,-1371,3867,-66,107,-19
20653,-705,-1399,3745,-118,111,-15
20664,-837,-1380,3592,-173,110,7
20674,-932,-1383,3514,-227,77,-15
20684,-920,-1394,3345,-175,48,-27
20694,-889,-1534,3503,-33,23,-7
20704,-878,-1737,3530,40,-18,12
20714,-884,-1820,3188,184,-43,13
20724,-793,-1841,3681,369,9,37
20734,-936,-1610,3668,253,-22,55
20744,-1035,-1301,3571,344,12,6
20754,-973,-1338,3836,397,-16,36
20764,-960,-1241,3723,143,-41,69
20774,-866,-1202,3709,40,-12,27
20784,-863,-1302,3707,-75,0,33
20794,-886,-1388,3649,-111,10,58
20804,-865,-1379,3660,-53,-20,77
20814,-852,-1269,3574,56,-27,87
20824,-812,-1248,3900,172,-33,103
20834,-908,-1347,3784,43,-109,151
20844,-976,-1510,3715,-15,-135,174
20854,-1066,-1642,3760,-42,-178,168
20865,-1055,-1700,3692,-15,-211,152
20875,-1016,-1672,3581,74,-263,159
20885,-936,-1597,3267,241,-269,173
20895,-836,-1728,3516,494,-243,166
20905,-800,-1533,4003,329,-155,101
20915,-740,-997,4009,124,-74,-5
20925,-692,-733,3935,127,19,-41
20935,-788,-618,4022,-236,75,-25
20945,-846,-588,3696,-564,124,-56
20955,-806,-822,3574,-761,153,-95
20965,-746,-1150,3575,-923,182,-94
20975,-718,-1468,3610,-942,199,-41
20985,-749,-1673,3571,-906,207,-23
20995,-807,-1744,3442,-804,197,-27
21005,-841,-1758,3398,-649,190,-11
21015,-908,-1747,3479,-533,207,3
21025,-896,-1803,3625,-460,209,5
21035,-924,-1831,3431,-393,206,13
21045,-962,-1948,3465,-205,217,13
21055,-986,-1982,3464,-200,210,33
21066,-1076,-1869,3477,-160,205,23
21076,-1094,-1727,3593,-86,201,-10
21086,-1096,-1526,3676,-43,170,-44
21096,-1073,-1359,3647,-67,146,-68
21106,-1092,-1364,3511,-110,113,-86
21116,-1123,-1556,3488,-170,98,-103
21126,-1135,-1706,3463,-202,67,-143
21136,-1088,-1794,3470,-148,59,-177
21146,-1001,-1848,3583,-99,53,-176
21156,-951,-1822,3610,-52,58,-163
21166,-930,-1787,3635,-13,73,-145
21176,-943,-1676,3616,-7,80,-115
21186,-936,-1638,3542,-36,69,-90
21196,-918,-1614,3550,-112,73,-61
21206,-934,-1608,3533,-187,79,-57
21216,-954,-1691,3499,-181,84,-61
21226,-987,-1838,3501,-181,76,-64
21237,-1026,-1914,3384,-160,64,-67
21247,-1048,-1893,3254,-49,44,-102
21257,-1060,-1935,3232,67,24,-140
21267,-1089,-1952,3262,184,9,-181
21277,-1160,-2002,3413,327,-33,-195
21287,-1214,-1973,3693,376,-89,-183
21297,-1254,-1706,3715,370,-143,-177
21307,-1269,-1464,3738,314,-187,-221
21317,-1166,-1387,3774,62,-172,-227
21327,-1098,-1497,3820,-219,-154,-180
21337,-981,-1598,3738,-482,-103,-167
21347,-809,-1641,3363,-511,-101,-173
21357,-644,-1620,3372,-449,-71,-110
21367,-512,-1928,3273,41,-71,-18
21377,-594,-2138,3340,306,-77,72
21387,-610,-1779,3149,369,-61,37
21397,-603,-1468,3228,556,-54,48
21408,-680,-1219,3325,447,-38,52
21418,-695,-1019,3317,338,-23,41
21428,-659,-1103,3484,303,-38,42
21438,-637,-1371,3563,157,-56,46
21448,-677,-1562,3652,63,-56,35
21458,-734,-1659,3632,31,-67,14
21468,-769,-1697,3518,-49,-43,28
21478,-839,-1895,3464,74,-41,118
21488,-932,-2109,3515,154,-23,165
21498,-935,-2142,3627,214,-26,168
21508,-943,-1914,3687,268,-39,161
21518,-911,-1576,3709,271,-37,156
21528,-978,-1314,3762,238,-16,138
21538,-1063,-1193,3795,158,2,127
21548,-1082,-1248,3781,110,17,127
21558,-1088,-1375,3750,48,19,109
21569,-1022,-1499,3677,-6,16,74
21579,-1000,-1516,3530,-56,11,55
21589,-972,-1562,3519,-34,10,41
21599,-936,-1622,3470,-51,-7,44
21609,-887,-1695,3471,-30,-8,47
21619,-850,-1765,3439,43,-35,46
21629,-845,-1870,3543,135,-44,60
21639,-876,-1871,3719,171,-55,78
21649,-919,-1690,3782,198,-60,60
21659,-951,-1492,3763,245,-58,43
21669,-981,-1375,3688,225,-49,47
21679,-1004,-1311,3599,149,-46,58
21689,-989,-1315,3526,58,-42,61
21699,-965,-1351,3425,-24,-54,45
21709,-929,-1420,3485,-44,-72,39
21719,-902,-1473,3457,-54,-100,21
21729,-857,-1473,3500,-15,-111,1
21740,-847,-1560,3571,34,-117,-6
21750,-819,-1614,3652,-49,-112,18
21760,-857,-1683,3713,93,-74,25
21770,-867,-1838,3865,253,-33,9
21780,-872,-1583,3793,294,-6,7
21790,-844,-1300,3754,363,10,35
21800,-875,-1239,3807,221,26,51
21810,-890,-1183,3783,-55,60,38
21820,-900,-1213,3692,-143,73,16
21830,-904,-1307,3626,-150,61,9
21840,-953,-1343,3577,-200,54,-3
21850,-973,-1376,3516,-240,40,-5
21860,-1016,-1407,3474,-221,19,-20
21870,-987,-1436,3502,-217,3,-32
21880,-934,-1509,3531,-178,-30,-27
21890,-903,-1531,3544,-173,-50,-28
21900,-803,-1607,3593,-145,-58,-5
21911,-790,-1825,3625,-62,-69,69
21921,-833,-1976,3729,-16,-52,100
21931,-861,-1803,3632,86,-66,83
21941,-848,-1592,3642,262,-37,66
21951,-915,-1478,3644,242,-34,85
21961,-985,-1460,3745,150,-7,97
21971,-1023,-1528,3702,133,-22,68
21981,-1014,-1480,3598,140,-32,27
21991,-966,-1263,3654,161,-33,-10
22001,-944,-1073,3626,137,-49,-22
22011,-971,-1046,3477,13,-72,-31
22021,-936,-1199,3313,-32,-111,-48
22031,-832,-1451,3496,-41,-95,-58
22041,-749,-1664,3599,-39,-51,-49
22051,-723,-1771,3516,73,-40,-22
22061,-686,-1763,3738,190,3,-7
22072,-695,-1685,3837,190,34,14
22082,-813,-1475,3755,118,73,26
22092,-889,-1326,3750,79,69,17
22102,-913,-1239,3719,27,64,30
22112,-906,-1257,3727,-42,50,22
22122,-900,-1283,3636,-85,50,15
22132,-939,-1400,3658,-68,34,7
22142,-964,-1466,3613,-76,29,-2
22152,-956,-1535,3480,-29,9,-3
22162,-977,-1581,3411,62,-11,4
22172,-924,-1577,3461,110,-13,6
22182,-872,-1529,3656,165,-9,-10
22192,-898,-1452,3662,125,-16,-26
22202,-876,-1379,3786,169,-18,-24
22212,-881,-1382,3769,120,-22,-9
22222,-866,-1362,3686,57,-21,-11
22232,-841,-1364,3701,35,-21,-5
22242,-859,-1399,3716,-1,-14,9
22252,-905,-1406,3646,-30,-39,23
22262,-901,-1424,3603,-23,-56,48
22273,-911,-1421,3554,11,-77,74
22283,-899,-1430,3727,114,-101,95
22293,-874,-1319,3677,114,-146,120
22303,-835,-1380,3787,208,-169,158
22313,-895,-1483,3764,166,-192,186
22323,-939,-1540,3703,196,-218,199
22333,-926,-1611,3657,211,-229,210
22343,-892,-1548,3397,267,-219,173
22353,-803,-1423,3785,323,-153,103
22363,-819,-1245,3682,179,-112,76
22373,-768,-1299,3679,286,-38,84
22383,-748,-1175,4166,3,42,60
22393,-699,-772,3714,-126,97,-60
22403,-740,-620,3705,-204,176,-95
22413,-858,-664,3520,-532,200,-79
22423,-880,-914,3553,-740,236,-96
22433,-860,-1397,3414,-833,268,-150
22443,-829,-1960,3122,-702,280,-194
22453,-789,-2394,3125,-421,334,-221
22463,-689,-2521,3605,10,424,-261
22474,-726,-2202,4047,134,478,-270
22484,-990,-1455,4009,118,462,-300
22494,-1243,-822,4032,139,438,-332
22504,-1349,-680,3845,-46,383,-317
22514,-1262,-912,3829,-212,314,-304
22524,-1079,-1258,3962,-437,304,-258
22534,-1040,-1381,3977,-573,233,-229
22544,-1088,-1413,3793,-594,117,-188
22554,-1071,-1669,3348,-486,54,-76
22564,-974,-2221,3028,-210,22,7
22574,-959,-2456,3163,21,16,41
22584,-887,-2200,3189,270,11,28
22594,-939,-1815,3135,540,-4,36
22604,-955,-1731,3345,659,-6,52
22614,-1121,-1685,3151,709,-36,14
22624,-1046,-1500,3084,921,-64,-34
22634,-524,-1239,4165,878,-39,84
22644,-800,-839,4131,116,-51,171
22654,-808,-577,3769,-131,-2,-1
22664,-805,-655,3925,3,40,58
22675,-904,-698,4046,-141,29,145
22685,-904,-630,3805,-343,22,130
22695,-855,-1066,3591,-372,36,102
22705,-892,-1737,3634,-410,44,96
22715,-1015,-2080,3492,-273,19,78
22725,-1131,-2020,3644,12,-24,78
22735,-1228,-1667,3779,179,-60,98
22745,-1262,-1388,3800,213,-85,110
22755,-1191,-1420,3930,170,-99,109
22765,-1176,-1504,3563,59,-83,104
22775,-1116,-1648,3483,126,-90,131
22785,-1105,-1664,3458,110,-73,129
22795,-1047,-1528,3380,142,-45,80
22805,-992,-1413,3368,212,-34,42
22815,-949,-1279,3475,227,-41,25
22825,-959,-1177,3500,210,-58,1
22835,-951,-1151,3445,158,-88,-25
22845,-931,-1215,3524,101,-110,-21
22855,-922,-1288,3760,-27,-137,-2
22865,-948,-1330,3713,-175,-187,4
22876,-948,-1375,3624,-168,-207,13
22886,-923,-1449,3635,-100,-203,49
22896,-888,-1568,3702,-12,-182,65
22906,-830,-1615,3764,81,-139,75
22916,-867,-1591,3917,164,-112,112
22926,-990,-1404,3975,107,-117,146
22936,-1079,-1225,3803,115,-127,134
22946,-1125,-1166,3842,55,-112,106
22956,-1134,-1130,3809,-1,-118,90
22966,-1111,-1139,3827,-70,-144,65
22976,-1021,-1198,3832,-162,-163,42
22986,-984,-1257,3808,-193,-175,36
22996,-923,-1284,3670,-189,-186,23
23006,-887,-1288,3386,-196,-216,20
23016,-843,-1366,3356,-115,-214,15
23026,-784,-1447,3461,-74,-212,35
23036,-717,-1495,3450,-1,-189,39
23046,-711,-1550,3470,116,-174,41
23056,-712,-1592,3639,129,-156,51
23066,-754,-1522,3747,86,-127,57
23077,-825,-1442,3877,108,-93,53
23087,-862,-1369,3930,82,-88,57
23097,-929,-1309,3864,12,-64,61
23107,-980,-1282,3807,-25,-54,67
23117,-991,-1300,3752,-28,-33,52
23127,-954,-1360,3700,-38,-39,51
23137,-901,-1413,3680,-88,-56,60
23147,-913,-1402,3532,-119,-75,37
23157,-890,-1361,3444,-98,-109,-10
23167,-896,-1325,3525,-80,-121,-32
23177,-883,-1319,3571,-74,-152,-59
23187,-823,-1356,3591,-30,-143,-90
23197,-718,-1504,3694,109,-128,-89
23207,-672,-1740,3838,105,-100,-47
23217,-683,-1644,3868,-41,-42,-48
23227,-681,-1341,3730,-81,22,-83
23237,-768,-1148,3741,-37,81,-127
23247,-844,-1114,3822,-202,101,-108
23257,-930,-1101,3560,-361,71,-111
23267,-864,-1093,3374,-296,16,-119
23278,-747,-1335,3534,-152,-2,-49
23288,-754,-1462,3644,-305,7,56
23298,-800,-1507,3716,-320,41,3
23308,-822,-1621,3663,-108,36,-41
23318,-816,-1703,3486,97,-12,5
23328,-786,-1592,3472,175,-41,58
23338,-755,-1357,3671,162,-16,41
23348,-661,-1108,4075,152,27,-32
23358,-597,-910,4048,6,48,-48
23368,-668,-980,3914,-104,82,-11
23378,-766,-1193,3774,-250,80,0
23388,-849,-1439,3499,-322,88,8
23398,-917,-1652,3369,-287,77,33
23408,-917,-1812,3517,-244,51,58
23418,-967,-1722,3315,-228,44,12
23428,-985,-1684,3286,-62,35,-46
23438,-975,-1628,3475,-13,20,-56
23448,-940,-1507,3504,4,-7,-62
23458,-819,-1434,3811,2,-7,-57
23468,-767,-1445,3957,-135,-13,-33
23479,-796,-1423,3721,-200,17,-45
23489,-783,-1545,3938,-129,37,-17
23499,-900,-1450,3739,-231,60,-20
23509,-860,-1416,3714,-166,80,-25
23519,-823,-1491,3656,-142,86,-7
23529,-813,-1549,3614,-154,98,-1
23539,-865,-1576,3517,-123,72,-5
23549,-869,-1568,3473,-44,48,-13
23559,-857,-1570,3505,62,12,2
23569,-851,-1509,3492,107,-9,-4
23579,-818,-1465,3573,178,-25,-5
23589,-817,-1492,3608,210,-21,5
23599,-853,-1502,3673,120,-37,25
23609,-862,-1457,3507,112,-28,-13
23619,-846,-1581,3582,225,-30,-10
23629,-866,-1664,3616,216,-37,7
23639,-818,-1630,3655,203,-37,13
23649,-811,-1607,3754,201,-26,-8
23659,-824,-1545,3727,152,-17,2
23669,-864,-1466,3772,148,-3,16
23680,-895,-1402,3782,124,11,18
23690,-915,-1292,3736,101,17,-1
23700,-909,-1245,3620,69,2,-4
23710,-903,-1241,3625,10,6,-11
23720,-900,-1309,3646,-30,3,-25
23730,-853,-1335,3677,-31,5,-41
23740,-816,-1357,3719,-7,-2,-33
23750,-790,-1397,3711,-15,-14,-16
23760,-813,-1485,3634,-22,-12,6
23770,-819,-1562,3590,7,-4,5
23780,-843,-1587,3608,63,-4,1
23790,-847,-1499,3680,125,-16,3
23800,-800,-1411,3710,112,-32,17
23810,-775,-1308,3765,48,-18,26
23820,-759,-1295,3752,-15,-1,28
23830,-829,-1337,3689,-52,13,21
23840,-867,-1370,3655,-58,10,24
23850,-920,-1422,3664,-66,10,23
23860,-907,-1445,3692,-89,13,7
23870,-904,-1451,3586,-69,-4,-17
23881,-848,-1493,3626,9,0,-29
23891,-852,-1494,3689,18,-4,-14
23901,-859,-1447,3727,8,-3,-10
23911,-865,-1398,3633,-21,-6,-11
23921,-855,-1398,3581,6,-7,-13
23931,-875,-1471,3638,28,-8,8
23941,-860,-1518,3688,18,-18,6
23951,-841,-1499,3658,32,-21,-8
23961,-850,-1509,3667,78,-32,-15
23971,-859,-1473,3603,87,-49,-1
23981,-864,-1389,3625,115,-55,5
23991,-832,-1335,3727,120,-44,-1
24001,-798,-1265,3817,93,-14,5
24011,-771,-1232,3731,55,-36,2
24021,-778,-1234,3697,-9,-2,-5
24031,-800,-1318,3721,-66,21,1
24041,-777,-1371,3674,-93,32,-12
24051,-756,-1407,3684,-76,35,9
24061,-797,-1469,3679,-97,37,33
24071,-848,-1482,3607,-122,29,16
24082,-897,-1445,3575,-89,29,7
24092,-926,-1424,3628,-68,13,14
24102,-915,-1426,3591,-92,-5,22
24112,-865,-1490,3564,-88,-14,8
24122,-822,-1533,3548,-43,-19,0
24132,-774,-1495,3748,6,6,3
24142,-795,-1439,3731,-4,-3,17
24152,-843,-1379,3661,8,5,9
24162,-853,-1355,3710,38,-1,5
24172,-897,-1371,3767,3,-2,13
24182,-935,-1319,3652,-48,-8,7
24192,-891,-1412,3637,4,-1,-3
24202,-910,-1578,3740,-9,-12,19
24212,-865,-1598,3649,-11,-19,14
24222,-859,-1559,3657,85,-31,-4
24232,-852,-1502,3724,123,-34,14
24242,-867,-1398,3697,170,-33,29
24252,-899,-1366,3751,178,-27,30
24262,-879,-1337,3746,119,-47,22
24272,-853,-1319,3701,77,-69,18
24283,-841,-1310,3706,32,-96,20
24293,-766,-1178,3754,22,-78,0
24303,-686,-1104,3589,141,-89,-14
24313,-634,-1160,3761,142,-23,5
24323,-706,-1271,3712,10,-7,42
24333,-797,-1390,3761,-52,25,49
24343,-819,-1425,3697,-102,8,41
24353,-862,-1446,3614,-60,-3,55
24363,-869,-1434,3553,-54,-40,65
24373,-803,-1424,3350,30,-38,48
24383,-753,-1551,3708,82,-28,55
24393,-891,-1428,3877,-157,-3,22
24403,-924,-1283,3672,-59,-11,-20
24413,-910,-1486,3801,34,-15,25
24423,-882,-1635,3578,-46,-37,42
24433,-880,-1792,3519,100,-38,54
24443,-983,-1758,3485,148,-38,38
24453,-950,-1538,3597,280,-30,0
24463,-835,-1297,3649,351,-28,0
24473,-734,-1108,3745,320,-12,28
24484,-717,-979,3801,135,13,31
24494,-756,-929,3756,-2,50,11
24504,-812,-1032,3817,-51,50,1
24514,-817,-1176,3828,-103,26,-3
24524,-829,-1284,3698,-115,7,-5
24534,-808,-1379,3949,-154,22,-20
24544,-843,-1408,3731,-231,24,-40
24554,-875,-1446,3655,-81,17,-41
24564,-897,-1463,3776,-36,-2,-5
24574,-920,-1361,3698,-43,-8,-6
24584,-900,-1337,3793,-36,-7,-19
24594,-869,-1366,3875,-89,2,-8
24604,-882,-1340,3650,-124,-7,0
24614,-857,-1416,3832,-86,7,14
24624,-838,-1366,3724,-229,2,15
24634,-827,-1290,3638,-235,13,-2
24644,-803,-1279,3677,-249,13,-2
24654,-825,-1216,3560,-299,8,-1
24664,-801,-1221,3572,-282,15,-22
24674,-747,-1309,3659,-300,21,-17
24685,-755,-1414,3546,-319,26,-9
24695,-769,-1573,3584,-285,27,-23
24705,-791,-1600,3469,-253,30,-30
24715,-816,-1589,3497,-136,35,-18
24725,-862,-1592,3576,-99,27,-2
24735,-903,-1528,3517,-91,26,-5
24745,-889,-1501,3570,-15,32,-30
24755,-851,-1518,3782,-15,40,-23
24765,-882,-1442,3687,-72,35,-30
24775,-867,-1478,3739,-44,43,-24
24785,-879,-1534,3690,-86,33,-15
24795,-867,-1537,3653,-70,47,-23
24805,-882,-1538,3665,-58,42,-13
24815,-906,-1541,3671,-59,38,-20
24825,-908,-1512,3667,-41,29,-29
24835,-881,-1468,3660,-1,24,-35
24845,-881,-1459,3667,-1,14,-37
24855,-886,-1424,3667,-39,7,-50
24865,-857,-1446,3650,-56,2,-64
24875,-857,-1507,3622,-22,-2,-72
24886,-858,-1531,3652,-30,-32,-46
24896,-858,-1530,3608,27,-12,-43
24906,-794,-1536,3803,42,-26,-24
24916,-791,-1495,3797,-73,-16,-16
24926,-852,-1422,3450,-153,-38,-7
24936,-845,-1601,3505,35,-31,18
24946,-921,-1677,3595,-59,-56,87
24956,-927,-1503,3318,-9,-69,39
24966,-837,-1526,3434,172,-97,11
24976,-775,-1506,3497,186,-110,34
24986,-784,-1451,3593,247,-123,52
24996,-787,-1419,3685,313,-152,55
25006,-756,-1304,3855,314,-104,75
25016,-706,-1246,3870,313,-89,75
25026,-705,-1271,4032,251,-41,60
25036,-835,-1191,3876,-17,-21,46
25046,-956,-1247,3683,-36,-32,17
25056,-947,-1471,3684,26,-58,6
25066,-933,-1590,3723,24,-78,18
25076,-902,-1616,3628,73,-82,1
25087,-879,-1601,3520,168,-63,-15
25097,-831,-1559,3713,134,-37,-17
25107,-789,-1406,3913,-32,12,-24
25117,-744,-1216,3688,-124,48,-41
25127,-749,-1189,3771,-213,88,-23
25137,-794,-1107,3629,-456,101,-51
25147,-816,-1115,3463,-534,121,-86
25157,-807,-1298,3500,-568,103,-91
25167,-794,-1530,3520,-569,90,-80
25177,-742,-1653,3506,-473,91,-68
25187,-709,-1772,3455,-338,92,-41
25197,-766,-1842,3566,-273,107,-20
25207,-840,-1711,3504,-263,103,-24
25217,-879,-1606,3498,-80,81,-41
25227,-864,-1616,3615,-34,69,9
25237,-872,-1580,3498,-68,55,-5
25247,-867,-1618,3579,53,44,8
25257,-928,-1624,3527,79,42,11
25267,-893,-1550,3755,107,43,15
25277,-883,-1465,3782,96,40,19
25288,-901,-1369,3761,74,37,-13
25298,-863,-1337,3669,48,30,-23
25308,-849,-1421,3715,-11,43,-6
25318,-813,-1498,3526,-64,62,-29
25328,-809,-1604,3810,-22,97,-55
25338,-887,-1536,3684,-139,81,-77
25348,-900,-1471,3632,-101,81,-80
25358,-893,-1475,3635,-91,71,-76
25368,-845,-1507,3645,-158,84,-65
25378,-849,-1578,3543,-189,97,-59
25388,-864,-1712,3472,-160,115,-59
25398,-885,-1839,3515,-82,108,-54
25408,-928,-1824,3435,-18,95,-56
25418,-941,-1746,3391,52,86,-71
25428,-969,-1747,3516,98,84,-79
25438,-996,-1683,3577,79,61,-105
25448,-980,-1563,3622,117,55,-118
25458,-964,-1427,3681,127,45,-141
25468,-922,-1323,3627,102,42,-148
25478,-887,-1310,3657,53,54,-137
25489,-857,-1446,3704,-11,70,-117
25499,-836,-1639,3630,-62,70,-93
25509,-860,-1742,3528,-63,64,-81
25519,-890,-1797,3564,1,62,-70
25529,-907,-1774,3601,29,59,-65
25539,-944,-1663,3599,72,48,-62
25549,-990,-1591,3574,123,23,-53
25559,-1049,-1627,3593,175,-8,-54
25569,-1030,-1660,3727,134,-27,-69
25579,-1033,-1572,3776,106,-55,-63
25589,-1082,-1447,3810,133,-100,-67
25599,-1000,-1332,3783,62,-120,-90
25609,-959,-1332,3730,-6,-132,-74
25619,-891,-1397,3692,-107,-139,-73
25629,-760,-1500,3505,-192,-145,-52
25639,-597,-1659,3072,22,-120,-7
25649,-540,-2012,3358,315,-108,71
25659,-538,-1739,3366,298,-72,70
25669,-460,-1352,3324,459,-59,67
25679,-496,-1164,3494,481,-15,111
25690,-548,-1019,3458,354,25,140
25700,-551,-1037,3535,359,31,185
25710,-500,-1063,3644,293,32,225
25720,-432,-1018,3633,251,68,248
25730,-387,-1010,3741,194,152,289
25740,-383,-1183,3746,76,165,365
25750,-429,-1404,3766,11,165,490
25760,-590,-1454,3858,-45,159,609
25770,-711,-1398,3740,-29,209,717
25780,-933,-1424,3693,47,296,889
25790,-1189,-1452,3658,-2,337,1051
25800,-1362,-1472,3633,-48,341,1098
25810,-1438,-1692,3540,-19,287,1106
25820,-1503,-1962,3357,89,217,1102
25830,-1480,-2100,3496,192,170,1067
25840,-1371,-1713,3642,235,52,876
25850,-1330,-1138,3763,353,14,691
25860,-1508,-767,3950,279,-23,619
25870,-1568,-784,3797,205,-113,624
25880,-1438,-962,3849,122,-150,425
25891,-1254,-1102,3893,5,-137,413
25901,-1111,-1050,3797,-47,-109,373
25911,-1099,-1046,3766,-58,-59,387
25921,-1130,-1060,3689,-180,-30,394
25931,-1163,-1157,3669,-206,-36,363
25941,-1199,-1440,3697,-226,-47,358
25951,-1261,-1646,3547,-180,-65,362
25961,-1305,-1691,3381,-32,-65,320
25971,-1322,-1503,3393,119,-74,267
25981,-1286,-1269,3458,224,-95,219
25991,-1253,-1142,3516,275,-126,177
26001,-1215,-1180,3613,310,-146,168
26011,-1167,-1153,3408,320,-187,170
26021,-1082,-1230,3805,303,-153,154
26031,-1038,-1077,3846,94,-55,170
26041,-1151,-900,4003,69,29,126
26051,-1143,-825,3924,-112,30,120
26061,-1165,-888,3984,-206,62,144
26071,-1240,-823,3769,-388,103,129
26081,-1245,-999,3845,-359,76,98
26092,-1233,-1149,3485,-364,34,123
26102,-1218,-1335,3790,-275,29,137
26112,-1244,-1234,3310,-228,-20,128
26122,-1216,-1329,3787,-166,-20,116
26132,-1209,-1168,3450,-289,-20,90
26142,-1143,-1184,3667,-153,0,60
26152,-1091,-1192,3497,-285,-2,103
26162,-1133,-1363,3500,-193,20,104
26172,-1153,-1512,3450,-181,39,90
26182,-1218,-1484,3430,-53,44,82
26192,-1205,-1310,3577,49,53,81
26202,-1241,-1089,3637,84,26,85
26212,-1285,-1072,3720,51,10,85
26222,-1312,-1160,3744,-14,10,73
26232,-1295,-1251,3803,-48,18,53
26242,-1256,-1229,3789,-66,37,37
26252,-1227,-1158,3708,-74,55,30
26262,-1255,-1206,3647,-81,45,17
26272,-1320,-1294,3508,-96,28,-27
26282,-1269,-1283,3577,-34,3,-58
26292,-1283,-1164,3648,0,-21,-62
26302,-1299,-1080,3660,30,-47,-53
26312,-1341,-1201,3670,11,-71,-64
26322,-1340,-1353,3656,-29,-90,-96
26332,-1295,-1391,3587,18,-99,-118
26343,-1251,-1344,3477,80,-112,-123
26353,-1161,-1301,3581,77,-105,-151
26363,-1090,-1236,3602,29,-44,-158
26373,-1084,-1164,3608,57,12,-167
26383,-1072,-1156,3701,44,28,-121
26393,-1098,-1190,3727,12,39,-75
26403,-1164,-1177,3637,-3,49,-80
26413,-1207,-1220,3636,34,36,-78
26423,-1215,-1295,3677,45,21,-78
26433,-1230,-1278,3692,71,11,-77
26443,-1252,-1216,3729,62,-7,-85
26453,-1266,-1125,3681,20,-21,-94
26463,-1274,-1079,3653,-13,-32,-122
26473,-1202,-1055,3658,-63,-41,-135
26483,-1118,-1045,3661,-90,-36,-118
26493,-1025,-1162,3668,-117,-26,-92
26503,-1008,-1344,3580,-137,-1,-42
26513,-1042,-1490,3516,-85,19,-9
26523,-1110,-1524,3564,-24,44,15
26533,-1162,-1432,3566,17,43,27
26543,-1209,-1278,3643,44,30,21
26553,-1229,-1164,3649,36,13,14
26563,-1225,-1111,3652,26,2,-3
26573,-1217,-1116,3703,11,2,-19
26583,-1203,-1159,3705,-18,4,-26
26594,-1180,-1190,3664,-61,0,-24
26604,-1162,-1212,3646,-69,16,-29
26614,-1165,-1230,3615,-67,25,-28
26624,-1175,-1273,3634,-55,27,-15
26634,-1205,-1300,3611,-47,19,-5
26644,-1199,-1333,3609,-39,13,-4
26654,-1177,-1346,3621,-9,11,-6
26664,-1168,-1329,3626,9,8,4
26674,-1156,-1244,3654,21,7,11
26684,-1172,-1185,3633,24,13,9
26694,-1169,-1161,3656,11,17,-1
26704,-1195,-1165,3610,-5,25,-11
26714,-1205,-1157,3636,-16,25,-20
26724,-1215,-1163,3635,-40,16,-33
26734,-1211,-1226,3627,-49,13,-47
26744,-1199,-1305,3620,-53,17,-53
26754,-1193,-1355,3618,-45,36,-59
26764,-1197,-1366,3564,-7,40,-56
26774,-1205,-1416,3610,32,29,-45
26784,-1217,-1377,3634,46,24,-50
26794,-1205,-1218,3735,45,40,-57
26804,-1219,-1062,3746,33,43,-59
26814,-1210,-1009,3721,-37,25,-55
26824,-1167,-1119,3612,-81,13,-46
26834,-1132,-1325,3589,-90,15,-32
26845,-1121,-1432,3557,-78,16,-6
26855,-1137,-1407,3532,-15,18,20
26865,-1147,-1316,3566,27,11,34
26875,-1192,-1236,3599,38,6,41
26885,-1211,-1174,3633,26,1,33
26895,-1200,-1175,3658,-2,-4,24
26905,-1200,-1226,3678,-27,0,23
26915,-1223,-1254,3687,-32,10,9
26925,-1236,-1244,3693,-34,7,3
26935,-1241,-1223,3669,-58,0,-2
26945,-1213,-1214,3628,-79,4,-12
26955,-1201,-1261,3629,-74,11,-28
26965,-1172,-1327,3590,-67,19,-19
26975,-1194,-1350,3555,-53,20,-6
26985,-1189,-1358,3596,-39,19,-2
26995,-1199,-1306,3602,-20,18,3
27005,-1184,-1241,3628,-25,22,23
27015,-1164,-1233,3633,-49,28,29
27025,-1159,-1229,3608,-78,32,39
27035,-1176,-1218,3617,-110,34,45
27045,-1174,-1171,3631,-131,33,51
27055,-1188,-1158,3618,-110,29,59
27065,-1163,-1238,3608,-88,22,69
27075,-1177,-1375,3548,-55,7,93
27085,-1208,-1448,3594,-13,8,98
27096,-1265,-1377,3627,-4,23,101
27106,-1292,-1258,3626,6,23,72
27116,-1289,-1240,3636,-2,18,53
27126,-1258,-1283,3599,-34,19,37
27136,-1272,-1317,3608,-40,28,18
27146,-1284,-1298,3624,-19,32,4
27156,-1269,-1303,3605,-10,29,7
27166,-1270,-1311,3550,7,19,-1
27176,-1271,-1348,3559,9,9,-22
27186,-1264,-1369,3568,15,1,-43
27196,-1275,-1356,3627,33,-16,-47
27206,-1270,-1299,3602,62,-38,-44
27216,-1264,-1265,3584,67,-64,-28
27226,-1191,-1215,3491,66,-87,-11
27236,-1140,-1251,3625,79,-92,1
27246,-1052,-1234,3844,-13,-43,23
27256,-1020,-1134,3891,-108,17,59
27266,-1095,-1011,3929,-179,61,116
27276,-1202,-969,3939,-307,52,170
27286,-1205,-907,3952,-492,98,184
27296,-1213,-888,3534,-595,124,174
27306,-1192,-1184,3426,-590,95,158
27316,-1199,-1578,3440,-694,98,184
27326,-1223,-1602,3388,-724,147,109
27336,-1292,-1355,3393,-647,166,59
27347,-1397,-1207,3403,-596,125,30
27357,-1323,-1211,3554,-606,118,-52
27367,-1248,-1393,3651,-633,161,-123
27377,-1366,-1606,3692,-665,204,-144
27387,-1531,-1663,3645,-682,222,-190
27397,-1597,-1682,3448,-605,220,-274
27407,-1596,-1781,3256,-480,186,-374
27417,-1557,-1929,3212,-370,174,-464
27427,-1496,-2017,3197,-270,158,-540
27437,-1452,-1985,3240,-99,140,-581
27447,-1471,-1897,3464,16,102,-596
27457,-1471,-1688,3380,27,37,-635
27467,-1458,-1612,3409,63,-23,-673
27477,-1356,-1610,3358,-24,-88,-725
27487,-1235,-1656,3254,-70,-125,-770
27497,-1159,-1795,3302,-74,-147,-777
27507,-1117,-1909,3297,-78,-147,-755
27517,-1133,-2002,3299,16,-162,-714
27527,-1154,-2024,3512,94,-160,-660
27537,-1176,-1889,3613,124,-179,-616
27547,-1192,-1754,3555,193,-179,-582
27557,-1185,-1714,3522,311,-167,-557
27567,-1204,-1829,3600,347,-155,-520
27577,-1206,-1800,3638,238,-159,-480
27587,-1147,-1671,3567,197,-145,-470
27598,-1086,-1538,3578,178,-137,-471
27608,-1046,-1367,3485,125,-103,-456
27618,-1014,-1351,3595,84,-69,-409
27628,-975,-1373,3573,-52,-79,-362
27638,-908,-1384,3488,-125,-75,-337
27648,-815,-1456,3513,-172,-68,-307
27658,-792,-1550,3473,-235,-48,-290
27668,-761,-1639,3358,-239,-37,-272
27678,-785,-1782,3226,-193,-37,-258
27688,-784,-1912,3210,-140,-46,-240
27698,-781,-2004,3270,-66,-45,-219
27708,-732,-1987,3388,3,-30,-181
27718,-688,-1851,3466,43,-33,-136
27728,-688,-1692,3468,78,-21,-108
27738,-698,-1574,3481,93,-23,-68
27748,-707,-1537,3430,47,-20,-22
27758,-713,-1576,3391,12,-3,15
27768,-728,-1727,3431,-13,14,41
27778,-758,-1833,3440,-35,32,43
27788,-808,-1860,3423,-3,41,33
27798,-875,-1797,3459,40,44,20
27808,-920,-1670,3471,75,34,12
27818,-959,-1624,3508,71,28,-2
27828,-976,-1657,3538,21,25,-8
27838,-992,-1772,3425,-20,17,-13
27849,-1011,-1933,3359,13,22,-12
27859,-1050,-2069,3420,72,16,-27
27869,-1063,-2077,3540,171,21,-40
27879,-1075,-1906,3636,239,11,-55
27889,-1044,-1711,3681,264,7,-52
27899,-1030,-1564,3724,210,3,-45
27909,-1030,-1503,3714,90,0,-41
27919,-1038,-1485,3626,-8,0,-49
27929,-1044,-1577,3519,-62,-11,-51
27939,-1022,-1688,3422,-101,-27,-61
27949,-949,-1759,3359,-63,-30,-71
27959,-873,-1789,3427,-23,-21,-54
27969,-838,-1771,3450,0,-20,-44
27979,-813,-1735,3401,15,-31,-33
27989,-796,-1679,3412,39,-36,-22
27999,-781,-1649,3436,51,-40,-5
28009,-762,-1700,3441,46,-44,24
28019,-748,-1735,3486,38,-48,38
28029,-794,-1824,3549,68,-52,53
28039,-847,-1832,3544,83,-48,74
28049,-945,-1787,3490,134,-59,81
28059,-976,-1724,3483,165,-66,86
28069,-949,-1611,3489,162,-75,84
28079,-932,-1567,3555,127,-66,93
28089,-924,-1541,3588,78,-63,89
28100,-917,-1551,3566,62,-61,79
28110,-941,-1590,3587,57,-54,70
28120,-950,-1659,3647,34,-49,65
28130,-961,-1707,3633,3,-43,57
28140,-969,-1782,3635,-1,-26,46
28150,-980,-1801,3546,-44,-33,35
28160,-970,-1757,3529,-22,-21,13
28170,-940,-1698,3512,-13,-19,5
28180,-924,-1612,3520,-60,-12,7
28190,-906,-1551,3449,-64,-12,-7
28200,-894,-1550,3512,-55,3,-8
28210,-868,-1595,3538,-92,10,0
28220,-874,-1662,3482,-106,18,4
28230,-889,-1767,3452,-52,14,-7
28240,-896,-1853,3565,22,18,4
28250,-935,-1885,3603,66,-7,4
28260,-971,-1802,3558,129,-35,-1
28271,-1002,-1729,3630,188,-74,0
28281,-950,-1704,3740,209,-100,19
28291,-902,-1722,3866,180,-130,54
28301,-887,-1802,3925,116,-156,108
28311,-927,-1842,3794,67,-247,165
28321,-886,-1808,3690,141,-307,237
28331,-825,-1762,3972,231,-348,356
28341,-768,-1572,4120,75,-367,475
28351,-732,-1337,4154,-122,-362,560
28361,-688,-1229,4183,-245,-380,626
28371,-590,-1397,4142,-247,-371,682
28381,-468,-1840,4037,-40,-367,747
28391,-401,-2433,3859,360,-293,831
28401,-362,-2780,3900,751,-192,922
28411,-376,-2708,3797,1188,-117,999
28421,-434,-2511,3794,1780,-32,1020
28431,-528,-2360,4067,2257,30,992
28442,-574,-2266,4345,2430,84,996
28452,-787,-2164,4268,2685,255,1179
28462,-1248,-2058,4122,3049,255,1317
28472,-1414,-1858,3802,3462,195,1354
28482,-1286,-1506,3976,3745,137,1368
28492,-1081,-976,3928,3788,110,1367
28502,-1013,-399,3944,3736,192,1363
28512,-1154,0,3903,3640,196,1428
28522,-1343,204,3858,3495,187,1476
28532,-1367,327,3713,3237,179,1459
28542,-1332,486,3489,3019,158,1423
28552,-1288,610,3356,2874,144,1369
28562,-1271,746,3283,2728,128,1327
28572,-1302,973,3288,2520,110,1289
28582,-1274,1189,3223,2381,72,1163
28592,-1253,1269,3259,2276,45,1055
28603,-1179,1301,3279,2122,22,973
28613,-1156,1408,3233,1930,15,911
28623,-1159,1526,3200,1776,-1,829
28633,-1184,1546,3189,1655,-45,759
28643,-1097,1527,3151,1566,-71,672
28653,-996,1579,3148,1421,-68,623
28663,-988,1690,3096,1293,-79,592
28673,-989,1726,3132,1172,-81,536
28683,-979,1723,3226,982,-92,524
28693,-956,1646,3231,822,-106,488
28703,-918,1558,3251,703,-116,438
28713,-846,1487,3335,629,-133,407
28723,-817,1483,3376,577,-151,370
28733,-815,1545,3415,571,-167,347
28743,-828,1562,3429,582,-173,303
28753,-836,1618,3437,594,-182,288
28763,-808,1694,3443,586,-182,271
28774,-783,1833,3434,515,-152,278
28784,-793,1938,3348,439,-137,287
28794,-841,1883,3337,375,-134,280
28804,-822,1764,3354,315,-121,274
28814,-802,1731,3383,245,-110,274
28824,-797,1755,3432,198,-110,265
28834,-808,1760,3465,170,-126,259
28844,-818,1781,3468,188,-134,239
28854,-793,1814,3505,215,-125,226
28864,-809,1878,3535,229,-128,215
28874,-813,1917,3539,256,-128,208
28884,-802,1987,3515,227,-133,212
28894,-803,2055,3443,206,-131,201
28904,-796,2088,3435,171,-118,194
28914,-810,2057,3421,120,-98,181
28924,-791,2001,3409,60,-85,169
28934,-791,1942,3410,40,-95,164
28945,-787,1886,3427,54,-87,128
28955,-768,1932,3492,53,-76,111
28965,-764,1998,3499,46,-70,104
28975,-788,2060,3526,18,-75,94
28985,-826,2077,3541,-19,-77,81
28995,-799,2042,3508,-62,-76,62
29005,-786,2011,3410,-74,-85,47
29015,-757,1914,3352,-40,-72,28
29025,-740,1932,3367,-1,-63,29
29035,-748,1977,3368,37,-42,32
29045,-766,2020,3431,11,-44,35
29055,-771,2028,3467,-36,-49,28
29065,-731,2029,3496,-108,-52,15
29075,-716,1998,3490,-194,-58,9
29085,-728,1925,3484,-242,-75,-2
29095,-713,1833,3400,-227,-91,-30
29106,-706,1792,3410,-164,-101,-48
29116,-714,1810,3406,-75,-95,-55
29126,-746,1911,3450,-12,-97,-39
29136,-778,2033,3526,-7,-107,-30
29146,-768,2082,3559,-42,-117,-25
29156,-723,2073,3572,-104,-128,-32
29166,-706,2025,3531,-154,-141,-42
29176,-680,1978,3537,-182,-147,-53
29186,-664,1974,3524,-190,-143,-77
29196,-642,2016,3446,-189,-145,-102
29206,-624,2045,3396,-180,-139,-150
29216,-623,2116,3320,-196,-128,-209
29226,-639,2195,3171,-270,-129,-287
29236,-667,2298,2973,-453,-121,-384
29246,-775,2294,2847,-678,-163,-555
29256,-830,2253,2788,-1000,-216,-704
29266,-858,2259,2875,-1357,-262,-841
29276,-854,2254,2991,-1790,-308,-1011
29286,-819,2248,3020,-2286,-346,-1201
29296,-823,2079,3074,-2708,-408,-1390
29307,-790,1769,3224,-3029,-482,-1562
29317,-638,1483,3447,-3278,-505,-1674
29327,-515,1156,3562,-3391,-489,-1738
29337,-476,835,3772,-3335,-443,-1780
29347,-455,702,4102,-3270,-370,-1794
29357,-496,668,4090,-3202,-303,-1791
29367,-441,524,4171,-3138,-209,-1770
29377,-414,274,4296,-3162,-87,-1715
29387,-399,6,4290,-3186,72,-1659
29397,-484,-274,4078,-3002,95,-1589
29407,-514,-638,4026,-2641,101,-1518
29417,-454,-963,4034,-2322,91,-1447
29427,-381,-1112,4153,-2036,111,-1367
29437,-407,-1117,4296,-1769,113,-1245
29447,-461,-1058,4213,-1514,86,-1118
29457,-458,-979,4219,-1311,46,-996
29467,-463,-921,4124,-1206,2,-843
29477,-489,-871,4027,-1069,-51,-701
29487,-447,-971,3966,-973,-42,-608
29497,-503,-1273,4027,-955,-32,-510
29508,-612,-1400,4018,-906,-12,-407
29518,-686,-1341,4183,-711,-26,-310
29528,-740,-1142,4287,-557,-71,-219
29538,-669,-879,4596,-593,-83,-151
29548,-615,-858,4228,-450,-114,-74
29558,-549,-1527,4051,-177,-132,-10
29568,-465,-2053,3875,-27,-68,46
29578,-377,-2172,3753,347,7,87
29588,-393,-1944,3978,665,104,106
29598,-484,-1281,4138,730,172,80
29608,-601,-622,4256,653,226,85
29618,-758,-287,4291,411,258,98
29628,-860,-229,4250,145,264,59
29638,-843,-426,4206,-38,245,-1
29648,-822,-599,3911,-147,198,-39
29658,-812,-612,4017,-234,231,-45
29668,-864,-625,3968,-244,148,-29
29678,-932,-701,4089,-400,100,-56
29688,-872,-697,4071,-584,48,-60
29698,-796,-708,4061,-648,4,-48
29709,-731,-723,4062,-669,-23,-36
29719,-679,-805,3902,-604,-55,-9
29729,-665,-1098,3713,-476,-65,-3
29739,-611,-1337,3765,-408,-26,22
29749,-548,-1470,3702,-79,21,12
29759,-517,-1418,3833,162,67,9
29769,-540,-1069,3867,276,105,1
29779,-651,-815,3859,317,130,12
29789,-738,-720,3914,176,153,8
29799,-751,-707,3847,-30,139,-16
29809,-687,-845,3870,-155,127,-37
29819,-695,-964,3846,-207,113,-43
29829,-713,-1014,3696,-183,90,-59
29839,-749,-1002,3672,-152,64,-61
29849,-770,-910,3723,-161,27,-51
29859,-755,-857,3763,-162,8,-28
29869,-765,-844,3709,-155,-23,-14
29879,-728,-948,3661,-130,-61,-1
29889,-680,-1098,3647,-70,-75,30
29899,-661,-1233,3603,25,-74,52
29910,-651,-1195,3658,89,-65,46
29920,-626,-1043,3626,233,-37,35
29930,-687,-946,3722,330,-1,51
29940,-718,-832,3669,368,38,35
29950,-678,-770,3738,404,65,25
29960,-683,-718,3763,351,86,26
29970,-733,-699,3832,251,112,18
29980,-760,-701,3874,205,120,2
29990,-772,-674,3989,137,106,-9
30000,-742,-618,4012,91,88,-16
30010,-742,-835,4057,79,56,0
30020,-814,-978,4029,-81,33,-7
30030,-771,-834,3903,-126,-3,-47
30040,-730,-720,3797,-78,-34,-64
30050,-745,-601,3745,-109,-62,-66
30060,-745,-544,3752,-157,-72,-71
30070,-713,-622,3801,-163,-82,-67
30080,-679,-787,3807,-88,-87,-74
30090,-638,-963,3869,-2,-94,-71
30100,-643,-1048,3939,22,-93,-64
30111,-620,-994,4037,46,-73,-64
30121,-617,-898,4156,40,-56,-56
30131,-619,-810,4162,24,-44,-51
30141,-667,-859,4178,6,-23,-47
30151,-699,-920,4142,-71,4,-45
30161,-721,-867,4120,-76,35,-28
30171,-775,-801,4220,-91,51,-19
30181,-780,-727,4254,-173,50,-32
30191,-819,-750,4090,-234,40,-22
30201,-814,-929,3962,-303,40,3
30211,-722,-1226,3698,-208,36,20
30221,-715,-1391,3591,-79,34,25
30231,-685,-1186,3599,68,30,7
30241,-734,-861,3714,175,5,4
30251,-743,-621,3797,135,-10,4
30261,-753,-602,3757,52,-22,-5
30271,-721,-820,3712,6,-38,-5
30281,-684,-984,3713,-33,-48,-3
30291,-653,-920,3753,-47,-53,8
30301,-614,-765,3706,-66,-51,30
30312,-597,-732,3746,37,-38,74
30322,-556,-933,3874,177,-27,130
30332,-511,-1221,4015,458,-21,203
30342,-481,-1364,4147,750,-58,317
30352,-404,-1309,4524,984,-47,443
30362,-432,-1351,4501,1254,-128,628
30372,-528,-1347,4490,1511,-181,776
30382,-545,-1234,4389,1771,-233,877
30392,-524,-1281,4260,2161,-258,934
30402,-533,-1344,4263,2494,-261,951
30412,-530,-1358,4197,2833,-240,922
30422,-606,-1144,4237,3221,-102,984
30432,-698,-760,4253,3449,-56,1118
30442,-598,-347,4293,3516,42,1154
30452,-670,60,4325,3427,113,1219
30462,-865,458,4226,3117,120,1271
30472,-926,721,4143,2814,95,1231
30482,-809,826,4088,2554,91,1193
30492,-802,893,4022,2261,114,1168
30502,-834,963,3902,2016,136,1121
30513,-836,1071,3710,1871,139,1079
30523,-789,1202,3594,1727,145,1018
30533,-786,1380,3558,1570,140,963
30543,-786,1547,3534,1412,145,908
30553,-798,1630,3509,1270,135,839
30563,-765,1648,3491,1115,130,763
30573,-759,1720,3473,968,125,704
30583,-722,1795,3517,828,109,652
30593,-723,1838,3462,713,88,585
30603,-705,1836,3442,597,82,519
30613,-720,1834,3345,501,51,462
30623,-741,1721,3300,448,44,396
30633,-711,1590,3281,413,35,335
30643,-680,1587,3289,404,28,293
30653,-642,1656,3335,452,12,230
30663,-639,1754,3377,447,0,189
30673,-674,1842,3392,408,-24,155
30683,-671,1820,3379,359,-42,117
30693,-638,1776,3387,328,-54,78
30703,-586,1757,3355,323,-72,59
30714,-590,1723,3340,335,-81,31
30724,-553,1708,3400,333,-78,-1
30734,-547,1711,3449,301,-68,-19
30744,-567,1737,3467,251,-70,-41
30754,-580,1781,3542,191,-76,-59
30764,-586,1809,3528,106,-95,-79
30774,-585,1787,3584,33,-100,-96
30784,-590,1781,3588,-48,-119,-100
30794,-566,1757,3561,-97,-123,-111
30804,-564,1768,3531,-135,-113,-120
30814,-564,1741,3536,-170,-106,-127
30824,-574,1705,3565,-208,-106,-155
30834,-565,1722,3538,-271,-110,-200
30844,-586,1782,3459,-379,-109,-249
30854,-634,1729,3398,-600,-112,-338
30864,-711,1670,3351,-943,-141,-447
30874,-801,1685,3435,-1340,-171,-550
30884,-801,1757,3552,-1797,-202,-655
30894,-861,1877,3654,-2293,-229,-784
30904,-826,1954,3682,-2752,-240,-910
30915,-747,1836,3685,-3115,-219,-1008
30925,-716,1564,3694,-3362,-182,-1077
30935,-664,1259,3809,-3472,-126,-1112
30945,-562,1045,3919,-3507,-29,-1106
30955,-561,994,3917,-3434,56,-1080
30965,-578,781,3839,-3222,108,-1089
30975,-510,331,3794,-3077,111,-1041
30985,-453,-205,3706,-2920,132,-956
30995,-432,-670,3757,-2670,154,-860
31005,-452,-883,3823,-2390,156,-810
31015,-435,-891,3928,-2110,146,-787
31025,-461,-799,3947,-1927,127,-733
31035,-519,-640,3985,-1804,110,-661
31045,-542,-561,3960,-1697,79,-585
31055,-540,-639,3927,-1536,67,-511
31065,-539,-837,3881,-1367,59,-442
31075,-555,-1068,3828,-1126,60,-396
31085,-580,-1286,3865,-862,50,-355
31095,-647,-1311,3918,-587,26,-316
31105,-664,-1204,4010,-347,-10,-299
31116,-692,-1072,4081,-234,-42,-261
31126,-690,-891,4110,-216,-50,-201
31136,-734,-844,4054,-90,-62,-160
31146,-742,-1073,3994,59,-41,-143
31156,-735,-1223,4055,168,-31,-129
31166,-703,-1128,4120,320,-9,-115
31176,-733,-929,4231,391,4,-73
31186,-750,-765,4342,336,21,-61
31196,-762,-725,4519,190,53,-56
31206,-780,-692,4534,47,61,-60
31216,-795,-692,4530,-31,54,-62
31226,-820,-663,4515,-140,41,-64
31236,-820,-553,4344,-212,21,-55
31246,-860,-626,4266,-164,19,-37
31256,-866,-799,4145,-117,5,-20
31266,-858,-880,4030,-46,-1,-24
31276,-831,-868,4071,36,27,-13
31286,-842,-763,4044,180,13,-29
31296,-810,-694,4020,240,13,-43
31306,-793,-552,3958,229,1,-51
31317,-732,-443,3953,132,1,-25
31327,-690,-425,3898,-28,0,2
31337,-762,-430,3684,-182,25,92
31347,-685,-587,3511,-219,-26,11
31357,-612,-680,3440,-172,-45,-42
31367,-573,-727,3447,-63,-37,-38
31377,-690,-777,3559,-2,-37,-17
31387,-680,-784,3601,-21,-54,-36
31397,-572,-710,3643,-34,-73,-56
31407,-499,-534,3656,-107,-71,-65
31417,-491,-332,3596,-227,-63,-60
31427,-509,-197,3555,-407,-57,-52
31437,-510,-294,3528,-561,-23,-32
31447,-440,-566,3682,-707,29,-51
31457,-275,-768,3751,-628,74,-155
31467,-230,-905,3874,-446,97,-192
31477,-383,-911,3962,-319,103,-182
31487,-437,-958,4109,-250,97,-189
31497,-423,-1018,4175,-246,88,-184
31507,-420,-1074,4057,-213,71,-143
31518,-461,-1115,3986,-84,51,-115
31528,-534,-1130,3953,59,35,-90
31538,-605,-1062,3902,233,25,-74
31548,-652,-983,4042,367,5,-49
31558,-707,-893,4109,365,-10,-31
31568,-719,-796,4153,299,-12,-20
31578,-711,-750,4105,195,-20,-21
31588,-732,-771,4063,108,-14,-24
31598,-759,-752,4089,46,-20,-31
31608,-747,-669,4090,11,-18,-34
31618,-767,-574,4085,-18,-23,-38
31628,-781,-535,4076,-59,-21,-53
31638,-772,-547,4026,-110,-10,-58
31648,-759,-625,3944,-150,11,-58
31658,-731,-711,3881,-178,15,-64
31668,-701,-749,3871,-217,26,-77
31678,-653,-785,3856,-267,26,-81
31688,-646,-784,3905,-338,29,-91
31698,-668,-798,3920,-408,29,-99
31708,-673,-797,3944,-469,23,-108
31719,-692,-773,3919,-491,5,-112
31729,-690,-863,3794,-510,-13,-112
31739,-608,-1052,3815,-509,19,-115
31749,-604,-1254,3502,-298,9,-112
31759,-563,-1495,3638,-152,71,-143
31769,-578,-1540,3536,-78,112,-146
31779,-647,-1560,3487,187,175,-186
31789,-708,-1629,3768,421,212,-199
31799,-814,-1452,4075,554,194,-217
31809,-1007,-1079,4266,646,121,-261
31819,-1130,-603,4391,541,45,-351
31829,-1132,-48,4455,192,6,-410
31839,-992,184,4090,-217,-34,-383
31849,-762,-157,3995,-558,-53,-348
31859,-505,-670,4033,-833,22,-360
31869,-375,-878,4033,-938,51,-372
31879,-276,-853,3933,-999,24,-324
31889,-234,-948,3421,-1100,9,-213
31899,-151,-1379,2806,-815,66,-97
31909,-145,-2339,2995,-147,126,67
31920,-119,-2565,3255,318,216,177
31930,-80,-2070,3663,849,246,259
31940,-217,-1257,3908,989,263,272
31950,-385,-458,3888,909,228,294
31960,-499,-154,4147,709,112,296
31970,-576,-218,4196,162,-10,326
31980,-966,-548,4073,167,-106,351
31990,-1272,-1069,3921,248,-184,264
32000,-1403,-1469,3515,412,-238,195
32010,-1450,-1749,3695,493,-309,259
32020,-1252,-1012,4015,163,-256,195
32030,-1012,-7,4191,311,-137,44
32040,-785,59,4387,482,-87,-67
32050,-736,-169,4522,312,-111,-4
32060,-657,-300,4400,-99,-124,33
32070,-636,-636,4185,-444,-107,49
32080,-586,-943,4057,-533,-83,60
32090,-552,-1219,3864,-313,-115,86
32100,-585,-1446,3737,-74,-116,146
32110,-568,-1597,3726,11,-99,154
32121,-534,-1419,3636,16,-69,140
32131,-624,-918,3799,72,-93,123
32141,-671,-385,3646,99,-149,83
32151,-739,-217,3787,4,-202,78
32161,-747,-314,3896,-201,-247,59
32171,-684,-612,3824,-269,-296,21
32181,-604,-939,3709,-227,-337,2
32191,-555,-1245,3702,-153,-339,-4
32201,-558,-1490,3845,-141,-306,-8
32211,-543,-1410,3506,-65,-257,-55
32221,-268,-1231,3978,224,-125,-61
32231,-172,-916,4503,77,-37,7
32241,-368,-602,3970,-83,51,-14
32251,-409,-744,4171,-55,135,-10
32261,-539,-731,4055,-328,159,21
32271,-593,-539,3592,-367,161,-19
32281,-554,-451,3607,-348,122,-16
32291,-505,-473,3706,-438,90,8
32301,-486,-540,3678,-510,84,5
32311,-435,-638,3729,-547,100,-4
32321,-314,-790,3969,-469,57,11
32331,-251,-980,4093,-551,20,80
32341,-328,-1121,3988,-622,-6,139
32351,-520,-1240,3859,-605,-18,146
32361,-742,-1473,3513,-400,-30,115
32372,-844,-1798,3486,-120,-56,99
32382,-879,-1877,3700,47,-73,94
32392,-828,-1781,3998,359,-82,86
32402,-850,-1397,4416,292,-55,33
32412,-882,-848,4416,171,-41,-61
32422,-943,-563,4220,13,-9,-118
32432,-1004,-571,4050,-277,11,-147
32442,-921,-690,3823,-699,22,-175
32452,-783,-832,3605,-923,34,-211
32462,-627,-1059,3553,-916,43,-247
32472,-489,-1308,3594,-865,31,-230
32482,-406,-1424,3351,-709,1,-146
32492,-273,-1666,3690,-461,-8,-19
32502,-383,-1657,3597,-535,-2,19
32512,-402,-1558,3621,-212,34,-78
32522,-374,-1643,3807,102,31,-43
32532,-436,-1422,4092,33,45,10
32542,-504,-1025,3653,70,15,-21
32552,-512,-1167,3946,63,4,18
32562,-531,-1179,3797,-195,-34,26
32572,-449,-1171,3590,-74,-28,1
32582,-432,-1294,3559,150,-17,7
32592,-429,-1312,3629,227,20,-1
32602,-487,-1155,3762,237,31,13
32612,-580,-1034,3769,119,21,5
32623,-594,-1001,3715,-10,21,-10
32633,-593,-1085,3878,-159,26,20
32643,-645,-1191,3733,-231,39,19
32653,-670,-1373,3872,-166,49,3
32663,-685,-1521,3965,-213,49,2
32673,-709,-1517,3708,-263,40,-11
32683,-721,-1486,3670,-190,45,-37
32693,-712,-1444,3659,-143,39,-42
32703,-709,-1368,3760,-127,68,-40
32713,-679,-1307,3653,-90,55,-51
32723,-607,-1349,3710,-72,67,-89
32733,-599,-1481,3818,-63,29,-33
32743,-638,-1538,3771,-74,35,-32
32753,-657,-1516,3881,22,35,-59
32763,-649,-1402,3858,63,32,-84
32773,-654,-1217,3744,61,21,-84
32783,-649,-1141,3740,30,29,-78
32793,-594,-1224,3770,-43,39,-81
32803,-519,-1368,3817,-80,65,-91
32813,-494,-1463,3752,-65,45,-92
32823,-461,-1399,3526,-13,52,-72
32833,-426,-1444,3767,127,76,-46
32843,-505,-1339,3720,-52,84,-27
32853,-532,-1227,3777,-30,108,-84
32863,-557,-1211,3746,-74,113,-76
32874,-547,-1112,3685,-62,134,-77
32884,-567,-1002,3876,-33,144,-61
32894,-628,-1009,3953,-106,123,-51
32904,-681,-1105,3778,-185,57,-56
32914,-618,-1265,3663,-82,39,-48
32924,-671,-1684,3971,-83,31,19
32934,-843,-1674,3630,-233,25,9
32944,-907,-1612,3731,-45,11,-40
32954,-807,-1626,3690,-30,-29,-35
32964,-780,-1528,3550,-28,-27,-29
32974,-786,-1505,3720,15,-64,-42
32984,-794,-1512,3757,-18,-120,-33
32994,-782,-1528,3860,-95,-198,15
33004,-734,-1418,3876,5,-245,28
33014,-771,-1490,4208,133,-345,87
33024,-769,-1471,4482,-27,-350,120
33034,-780,-1303,4273,-225,-349,124
33044,-901,-1409,3857,-123,-309,100
33054,-967,-1700,3855,53,-344,84
33064,-871,-1768,3707,45,-358,90
33074,-688,-1646,3475,101,-365,82
33084,-408,-1565,3472,234,-371,74
33094,-252,-1430,3526,212,-350,44
33104,-127,-1200,3508,301,-339,-48
33114,-101,-1100,3386,299,-314,-77
33125,-136,-962,2889,208,-291,-95
33135,72,-894,3240,322,-198,-99
33145,290,-854,4079,-30,-49,-31
33155,101,-846,3129,-310,30,-44
33165,-14,-1209,2973,-150,189,-69
33175,-213,-1568,3421,-94,248,29
33185,-337,-1442,3557,-180,280,28
33195,-321,-1394,3228,198,266,-51
33205,-151,-1381,4380,331,275,-32
33215,-286,-875,3929,393,229,-47
33225,-443,-880,3989,536,198,16
33235,-661,-953,4084,69,147,64
33245,-718,-1038,4039,-170,109,46
33256,-751,-1458,3799,45,75,77
33266,-768,-1949,3880,239,85,144
33276,-776,-1914,3996,347,69,142
33286,-784,-1524,3960,531,44,104
33296,-786,-1146,4051,564,-7,90
33306,-736,-866,4122,421,-38,78
33316,-723,-746,3816,350,-73,45
33326,-754,-922,3946,386,-90,19
33336,-681,-1096,3985,236,-139,29
33346,-580,-1113,3783,124,-141,33
33356,-473,-1145,4103,132,-139,-8
33366,-358,-964,4252,-21,-77,-45
33377,-331,-805,4129,-224,-21,-22
33387,-436,-915,3688,-370,23,14
33397,-500,-1409,3390,-356,35,59
33407,-538,-1910,3159,-297,12,121
33417,-503,-1864,3106,-167,22,109
33427,-444,-1349,3258,68,12,5
33437,-383,-898,3596,314,16,-30
33447,-359,-804,3906,430,36,24
33457,-284,-876,4012,434,76,35
33467,-149,-1005,4465,375,111,34
33477,-339,-868,4442,-20,188,26
33487,-532,-610,4488,-266,174,1
33497,-687,-582,4178,-488,143,-25
33508,-836,-835,3867,-633,111,-39
33518,-916,-1235,3492,-556,35,-41
33528,-928,-1645,3508,-327,-18,-59
33538,-811,-1801,3652,-150,-93,-79
33548,-632,-1681,4038,-164,-51,-85
33558,-485,-1416,4007,-143,-22,-58
33568,-483,-1258,4317,-230,40,-13
33578,-527,-1089,4038,-462,56,-23
33588,-630,-1033,3768,-556,83,-46
33598,-741,-1077,3522,-607,73,-51
33608,-721,-1184,3471,-654,86,-65
33618,-674,-1408,3387,-648,47,-85
33629,-560,-1620,3366,-543,45,-122
33639,-498,-1794,3293,-400,1,-93
33649,-453,-1854,3503,-172,47,-76
33659,-432,-1715,3807,-119,45,-43
33669,-464,-1466,3909,-112,78,-63
33679,-468,-1194,3846,-134,72,-48
33689,-471,-1063,3663,-100,58,-35
33699,-476,-1075,3578,-115,68,-8
33709,-468,-1218,3490,-147,59,11
33719,-448,-1394,3639,-40,58,-4
33729,-458,-1453,3885,12,41,11
33739,-441,-1432,3924,75,28,61
33749,-530,-1448,3907,96,14,87
33760,-584,-1421,3927,157,-22,80
33770,-656,-1368,3887,221,-58,99
33780,-713,-1424,3888,279,-72,124
33790,-794,-1449,3761,102,-119,140
33800,-829,-1437,3603,41,-132,60
33810,-778,-1463,3541,135,-171,4
33820,-696,-1576,3516,255,-157,10
33830,-677,-1634,4031,152,-122,26
33840,-626,-1425,4089,-53,-102,-38
33850,-548,-1199,4012,-51,-57,-112
33860,-501,-1090,4040,-124,-17,-122
33870,-548,-1037,3907,-340,21,-102
33881,-631,-1161,3747,-522,51,-116
33891,-623,-1387,3623,-583,58,-154
33901,-541,-1574,3334,-529,18,-161
33911,-440,-1787,3342,-340,22,-101
33921,-402,-1718,3255,-295,33,-40
33931,-384,-1697,3317,31,79,-109
33941,-338,-1692,3587,138,76,-62
33951,-376,-1534,3514,185,90,-26
33961,-364,-1364,3746,281,89,13
33971,-420,-1282,3802,159,67,24
33981,-473,-1163,3562,69,61,-4
33991,-534,-1175,3792,90,51,-27
34001,-612,-1173,3681,11,38,-42
34012,-650,-1292,3728,3,32,-37
34022,-636,-1407,3844,-126,34,-49
34032,-604,-1460,3782,-126,64,-57
34042,-573,-1641,4005,-67,82,-42
34052,-683,-1633,3819,-184,86,-24
34062,-710,-1577,3742,-63,87,-56
34072,-682,-1597,3780,-23,71,-55
34082,-659,-1502,3727,-45,62,-42
34092,-656,-1444,3689,-27,67,-57
34102,-639,-1473,3776,-58,72,-78
34112,-625,-1445,3756,-60,69,-77
34122,-629,-1457,3773,-8,59,-53
34133,-631,-1556,3850,-30,45,-26
34143,-603,-1588,3710,-79,23,-23
34153,-572,-1607,3613,-38,6,-15
34163,-547,-1565,3637,-28,8,-13
34173,-529,-1448,3581,-20,1,-32
34183,-511,-1359,3568,11,11,-39
34193,-508,-1317,3626,19,5,-28
34203,-530,-1354,3636,27,9,-19
34213,-524,-1446,3709,43,12,-15
34223,-540,-1509,3786,18,14,-3
34233,-571,-1512,3748,12,18,4
34243,-605,-1489,3762,26,18,2
34253,-594,-1478,3742,-18,15,9
34263,-603,-1448,3655,-50,27,17
34273,-618,-1461,3717,-65,35,12
34283,-623,-1469,3706,-89,32,8
34293,-612,-1490,3669,-75,34,0
34303,-611,-1497,3689,-61,32,4
34313,-606,-1493,3703,-74,33,7
34323,-618,-1450,3660,-75,42,-6
34333,-627,-1439,3677,-50,44,-21
34343,-576,-1441,3718,-62,49,-10
34353,-569,-1457,3663,-101,41,-5
34363,-574,-1489,3638,-98,51,-1
34373,-604,-1528,3655,-89,59,-3
34383,-595,-1507,3640,-67,68,1
34393,-605,-1540,3615,-35,75,7
34403,-609,-1541,3664,-31,89,9
34413,-616,-1510,3671,-25,90,11
34423,-623,-1512,3696,-9,88,10
34433,-632,-1526,3727,-11,80,9
34443,-630,-1514,3744,-18,74,11
34453,-629,-1510,3722,-30,71,11
34463,-638,-1514,3650,-28,73,7
34473,-648,-1553,3623,-8,71,3
34483,-671,-1576,3599,-2,71,7
34493,-653,-1550,3634,18,59,5
34503,-670,-1503,3628,48,55,7
34513,-695,-1472,3637,98,48,9
34523,-680,-1491,3673,129,36,17
34533,-668,-1540,3688,124,31,16
34543,-660,-1551,3706,129,18,21
34553,-675,-1554,3685,128,-3,16
34563,-684,-1569,3641,137,-13,16
34573,-724,-1526,3704,123,-16,10
34583,-707,-1451,3698,121,-23,-1
34593,-679,-1409,3734,129,-27,1
34603,-631,-1411,3690,138,-36,16
34613,-632,-1458,3729,155,-33,24
34623,-601,-1471,3721,172,-28,26
34634,-617,-1437,3671,182,-38,13
34644,-616,-1373,3674,213,-40,15
34654,-621,-1361,3648,203,-41,26
34664,-599,-1332,3731,152,-37,25
34674,-606,-1279,3683,118,-31,3
34684,-647,-1309,3718,162,-26,3
34694,-659,-1324,3823,98,-12,-3
34704,-642,-1322,3667,61,12,-14
34714,-603,-1390,3917,66,57,-22
34724,-659,-1288,3866,-29,52,-37
34734,-708,-1256,3826,-38,47,-34
34744,-758,-1281,3770,-109,43,-28
34754,-756,-1322,3670,-164,36,-49
34764,-723,-1406,3677,-131,29,-60
34774,-663,-1510,3696,-150,29,-33
34784,-648,-1573,3678,-167,33,-21
34794,-635,-1605,3654,-106,39,-26
34804,-645,-1569,3697,-25,43,-8
34814,-672,-1468,3691,30,26,11
34824,-703,-1367,3715,48,11,15
34834,-720,-1263,3700,24,9,-4
34844,-694,-1242,3770,12,5,-18
34854,-694,-1353,3748,-44,-4,-1
34864,-706,-1435,3731,-87,-7,-15
34874,-718,-1469,3700,-60,-12,-34
34884,-691,-1476,3718,-34,-9,-30
34894,-638,-1466,3692,-26,-2,-14
34904,-582,-1471,3667,-33,9,-7
34914,-572,-1461,3684,-37,25,2
34924,-615,-1421,3700,-35,22,6
34934,-675,-1399,3676,-41,15,-2
34944,-674,-1362,3649,-26,10,-8
34954,-671,-1383,3710,-14,13,-16
34964,-663,-1425,3726,-28,10,-10
34974,-647,-1463,3732,-31,14,-8
34984,-667,-1490,3760,-19,13,-10
34994,-681,-1486,3750,-6,14,-2
35004,-694,-1451,3722,2,11,0
35014,-692,-1422,3700,-3,4,-3
35024,-661,-1370,3677,-11,2,-3
35034,-636,-1390,3682,-6,10,-1
35044,-648,-1422,3676,-15,13,-2
35054,-655,-1436,3695,-28,11,1
35064,-674,-1462,3664,-2,7,-2
35074,-664,-1464,3727,7,12,7
35084,-675,-1429,3662,0,11,12
35094,-674,-1427,3669,26,16,-1
35104,-689,-1431,3665,31,15,-6
35114,-689,-1437,3632,29,17,-1
35124,-659,-1435,3678,27,18,2
35135,-646,-1464,3631,54,2,2
35145,-655,-1483,3690,66,13,9
35155,-653,-1437,3694,59,8,3
35165,-643,-1414,3590,111,8,-2
35175,-647,-1452,3653,132,7,17
35185,-651,-1406,3727,108,9,21
35195,-655,-1288,3754,109,17,12
35205,-639,-1258,3695,126,25,9
35215,-657,-1346,3861,160,44,16
35225,-742,-1343,3871,66,15,26
35235,-775,-1369,3831,92,-5,12
35245,-778,-1460,3845,34,-23,16
35255,-784,-1443,3801,-42,-59,-17
35265,-786,-1389,3774,12,-71,-32
35275,-765,-1330,3807,59,-60,-25
35285,-705,-1312,3876,51,-44,-14
35295,-627,-1342,3825,-11,-42,-1
35305,-626,-1471,3787,-12,-12,33
35315,-617,-1508,3714,-34,-13,36
35325,-646,-1391,3669,24,-12,35
35335,-657,-1249,3610,40,-16,36
35345,-660,-1174,3548,20,-21,32
35355,-634,-1206,3587,-7,-13,2
35365,-621,-1252,3626,-12,-4,-8
35375,-621,-1348,3676,-18,-6,-3
35386,-655,-1416,3715,-42,-1,-6
35396,-658,-1420,3698,-21,10,-10
35406,-652,-1415,3704,1,25,-5
35416,-649,-1387,3664,19,36,-2
35426,-658,-1373,3704,6,44,3
35436,-676,-1298,3668,-23,47,0
35446,-712,-1282,3708,-34,45,-5
35456,-700,-1286,3857,-82,48,-19
35466,-712,-1276,3797,-85,37,-19
35476,-688,-1390,3908,-71,60,-4
35486,-673,-1512,3858,-100,48,-4
35496,-690,-1514,3864,-83,64,-14
35506,-701,-1407,3823,-59,56,2
35516,-710,-1322,3792,-104,65,10
35526,-737,-1289,3758,-159,58,-12
35536,-777,-1300,3713,-93,37,-29
35546,-763,-1367,3802,-135,39,-32
35556,-752,-1449,3752,-151,22,-40
35566,-786,-1566,3803,-152,-4,-57
35576,-811,-1552,3523,-71,-50,-78
35586,-717,-1461,3625,164,-65,-64
35596,-802,-1385,4048,-5,-99,-28
35606,-819,-1065,3522,-84,-115,-72
35616,-653,-1227,3696,55,-124,-22
35626,-582,-1473,3593,-150,-164,66
35637,-633,-1478,3348,-166,-190,52
35647,-617,-1463,3450,3,-228,71
35657,-569,-1532,3521,193,-260,132
35667,-565,-1620,3467,380,-308,179
35677,-555,-1781,3631,641,-311,213
35687,-552,-1838,3855,792,-308,237
35697,-548,-1649,3653,955,-274,220
35707,-583,-1371,4194,1037,-222,219
35717,-648,-951,3864,733,-237,199
35727,-596,-821,3852,638,-156,165
35737,-605,-691,4291,157,-89,76
35747,-560,-490,3830,-121,-34,-5
35757,-602,-734,4019,-111,49,-9
35767,-645,-920,4096,-508,73,-30
35777,-602,-983,3715,-637,102,-102
35787,-593,-1163,3716,-706,120,-105
35797,-579,-1262,3540,-877,129,-94
35807,-578,-1364,3395,-902,137,-97
35817,-522,-1487,3411,-807,160,-86
35827,-510,-1527,3607,-730,159,-56
35837,-508,-1510,3640,-712,164,-36
35847,-515,-1484,3531,-619,170,-53
35857,-564,-1617,3629,-437,171,-37
35867,-661,-1881,3758,-350,159,-6
35877,-717,-1978,3684,-219,124,0
35888,-678,-1874,3692,13,105,-27
35898,-678,-1560,3770,153,78,-48
35908,-678,-1251,3729,181,98,-49
35918,-689,-1139,3898,173,98,-28
35928,-698,-1156,3975,49,74,-32
35938,-756,-1251,3841,-38,83,-41
35948,-832,-1371,3835,-100,91,-65
35958,-880,-1464,3761,-119,96,-74
35968,-843,-1550,3659,-119,65,-51
35978,-800,-1608,3499,-142,24,-30
35988,-708,-1645,3483,-75,5,-43
35998,-682,-1673,3503,-20,-18,-48
36008,-645,-1666,3453,64,-36,-22
36018,-613,-1673,3566,119,-52,14
36028,-621,-1626,3619,94,-56,29
36038,-654,-1560,3539,126,-54,15
36048,-641,-1558,3536,201,-62,19
36058,-618,-1525,3575,234,-60,43
36068,-618,-1472,3613,259,-58,33
36078,-609,-1403,3673,264,-55,28
36088,-589,-1362,3802,248,-45,34
36098,-622,-1332,3863,217,-36,42
36108,-673,-1331,3846,207,-34,42
36118,-707,-1304,3887,200,-29,41
36128,-688,-1306,3938,126,-22,51
36139,-710,-1281,3889,-15,-17,52
36149,-660,-1225,3885,-102,-1,24
36159,-678,-1222,3900,-197,3,9
36169,-709,-1223,3905,-284,4,3
36179,-746,-1276,3863,-379,-2,4
36189,-778,-1361,3670,-416,21,-13
36199,-705,-1414,3685,-329,25,-30
36209,-658,-1526,3904,-353,37,-42
36219,-691,-1514,3934,-495,61,-41
36229,-772,-1361,3932,-542,59,-49
36239,-792,-1395,3899,-580,12,-64
36249,-794,-1449,3941,-692,-44,-80
36259,-713,-1492,3857,-880,-73,-46
36269,-587,-1665,3915,-933,-74,-7
36279,-623,-1824,4158,-1125,-75,78
36289,-573,-1978,3850,-1181,-99,99
36299,-511,-2273,3606,-804,-118,161
36309,-399,-2551,3532,-285,-142,327
36319,-266,-2678,3685,248,-114,508
36329,-183,-2779,3274,920,-47,658
36340,-87,-2973,3242,1814,68,783
36350,-36,-3151,3394,2708,117,896
36360,-38,-3202,3612,3455,154,928
36370,-88,-2899,3850,3941,170,969
36380,-198,-2408,4141,4301,220,1007
36390,-633,-1755,4241,4555,296,1220
36400,-894,-1304,4345,4544,313,1414
36410,-906,-917,4272,4509,305,1575
36420,-870,-674,4404,4371,359,1681
36430,-975,-355,4173,4165,349,1719
36440,-1007,-30,4006,4172,363,1677
36450,-1095,339,4066,4000,383,1689
36460,-1241,827,3909,3674,369,1705
36470,-1289,1175,3851,3342,358,1672
36480,-1214,1341,3676,2958,315,1642
36490,-1130,1324,3464,2644,273,1554
36500,-1034,1236,3269,2422,255,1472
36510,-1017,1308,3129,2212,219,1412
36520,-1013,1508,3024,2062,189,1352
36530,-1001,1755,3072,1879,158,1300
36541,-988,1982,3057,1671,119,1244
36551,-997,2075,3099,1478,92,1170
36561,-937,2060,3039,1279,72,1054
36571,-958,2084,2964,1155,24,974
36581,-964,2118,2987,1078,4,887
36591,-985,2235,3031,1004,-29,810
36601,-918,2344,3075,914,-43,704
36611,-876,2293,3098,823,-77,612
36621,-814,2180,3050,778,-97,512
36631,-731,2068,3120,752,-104,438
36641,-704,2085,3161,702,-107,389
36651,-702,2129,3247,665,-106,324
36661,-675,2120,3261,595,-107,250
36671,-654,2105,3298,515,-104,211
36681,-651,2082,3353,419,-92,182
36691,-670,2013,3301,353,-86,142
36701,-643,1933,3351,303,-77,103
36711,-643,1904,3393,265,-73,81
36721,-609,1877,3463,236,-66,51
36731,-617,1905,3404,191,-80,26
36742,-641,1954,3369,164,-83,0
36752,-665,1997,3422,129,-83,2
36762,-687,2015,3392,80,-83,-1
36772,-675,1950,3375,40,-86,-7
36782,-688,1929,3378,18,-101,-1
36792,-655,1877,3355,34,-106,-8
36802,-647,1877,3253,43,-109,-6
36812,-630,1866,3226,91,-117,7
36822,-655,1854,3307,117,-112,27
36832,-640,1920,3342,126,-129,40
36842,-627,1971,3353,123,-145,33
36852,-678,2045,3359,93,-175,37
36862,-682,2059,3361,76,-195,28
36872,-649,2058,3309,56,-201,8
36882,-627,2090,3218,41,-213,-21
36892,-625,2157,3163,-1,-209,-51
