t_ms,ax,ay,az,gx,gy,gz
0,-76,112,4082,-276,129,203
10,-66,75,4082,-285,126,232
20,-132,72,4031,-280,122,246
30,-376,88,4047,-185,75,184
40,-241,-125,4019,-109,22,108
50,-180,-242,4080,-87,24,35
60,-245,-144,4089,-68,12,-31
70,-210,-53,4082,0,-17,-82
80,-130,7,4119,47,-39,-104
90,-91,68,4122,49,-38,-112
100,-73,133,4120,15,-28,-83
110,-77,176,4048,-38,-13,-39
120,-125,110,4001,-23,-16,-23
130,-92,40,4008,9,-26,-28
140,-121,50,4054,-7,-20,-22
150,-113,129,4060,-30,-19,-2
160,-111,121,4090,-62,-16,20
170,-127,73,4095,-89,-9,36
180,-114,-2,4094,-92,-11,40
190,-125,49,4054,-75,-6,45
200,-148,64,4071,-67,-2,23
210,-135,4,4075,-69,-9,6
220,-144,-47,4031,-13,-21,-31
230,-126,-50,4054,33,-27,-69
240,-114,-4,4062,37,-20,-74
250,-111,56,4082,38,-18,-68
260,-80,94,4091,5,-18,-38
270,-71,92,4092,-34,-8,-10
280,-102,106,4074,-65,-5,27
290,-92,59,4059,-77,2,31
300,-92,41,4061,-85,6,33
310,-105,24,4073,-92,8,39
320,-119,21,4067,-90,6,33
330,-115,-11,4035,-53,-8,28
340,-137,-45,4051,-1,-14,14
350,-131,-58,4074,-4,-23,-12
360,-106,-4,4061,26,-25,-39
370,-102,-13,4084,37,-30,-53
380,-69,47,4099,29,-27,-44
390,-77,93,4106,2,-18,-30
400,-67,97,4111,-57,-4,-3
410,-63,25,4055,-85,2,15
420,-76,11,4042,-52,7,14
430,-84,47,4066,-37,4,22
440,-93,85,4093,-59,3,51
450,-143,86,4084,-80,9,65
460,-139,-20,4034,-71,4,21
470,-99,-100,4067,-30,-9,-13
480,-115,-40,4077,-21,-7,-8
490,-98,22,4074,-10,-9,-5
500,-116,6,4048,23,-24,-16
510,-104,-89,4058,53,-33,-36
520,-106,-35,4085,48,-26,-27
530,-106,55,4080,23,-11,-15
540,-51,86,4098,-11,-7,3
550,-73,42,4097,-48,2,11
560,-78,25,4078,-63,2,16
570,-112,19,4050,-70,2,20
580,-97,-19,4036,-35,-6,7
590,-93,-6,4039,-1,-9,-7
600,-93,13,4080,3,-11,-15
610,-79,21,4107,-9,-6,-17
620,-92,11,4101,-14,-3,-5
630,-113,-6,4110,-28,-1,2
640,-120,-27,4102,-32,-2,-5
650,-133,-26,4068,-15,-5,-3
660,-108,-6,4063,1,-14,-5
670,-101,2,4075,13,-13,-8
680,-88,15,4064,1,-18,-11
690,-96,33,4065,-10,-5,0
700,-89,51,4036,-28,-5,7
710,-84,35,4054,-35,0,17
720,-74,17,4070,-56,7,26
730,-126,18,4055,-72,22,35
740,-118,-15,4086,-63,18,23
750,-101,-39,4084,-64,13,20
760,-113,5,4104,-60,15,27
770,-113,14,4108,-77,13,46
780,-128,-6,4014,-8,-3,27
790,-126,-113,4071,80,-21,-45
800,-92,-93,4108,73,-22,-42
810,-95,66,4103,37,-9,-29
820,-60,121,4111,-13,-4,-12
830,-92,27,4051,-22,-13,2
840,-91,-32,4042,22,-22,-4
850,-118,-79,4047,41,-30,-20
860,-90,3,4074,22,-23,-23
870,-79,59,4068,-15,-17,-15
880,-65,57,4077,-46,-11,1
890,-101,24,4073,-42,-11,19
900,-80,-34,4050,-29,-9,7
910,-80,-11,4074,-6,-7,-3
920,-76,27,4087,-5,-3,-9
930,-137,16,4066,-13,-3,3
940,-123,14,4045,12,-8,-16
950,-88,10,4047,8,-9,-15
960,-109,26,4058,-3,-9,-4
970,-109,32,4051,-14,-9,-10
980,-93,-8,4077,-21,-3,-13
990,-57,-4,4070,-26,2,-10
1000,-85,-2,4064,-12,8,-17
1010,-80,14,4085,5,11,-13
1020,-103,47,4079,-14,8,-9
1030,-109,4,4077,-24,8,-12
1040,-116,0,4062,-19,3,-19
1050,-127,9,4031,6,-5,-31
1060,-130,25,4053,39,-14,-26
1070,-130,17,4088,28,-21,-10
1080,-91,5,4075,1,-24,16
1090,-90,28,4071,-10,-22,21
1100,-93,6,4077,-25,-21,9
1110,-82,-60,4062,-19,-24,6
1120,-64,-36,4070,-14,-15,1
1130,-77,10,4077,-15,-16,8
1140,-83,-3,4065,-19,-10,9
1150,-65,-12,4072,-31,0,5
1160,-102,19,4051,-2,-6,-18
1170,-92,3,4028,22,-16,-15
1181,-93,-20,4027,47,-10,-24
1191,-97,-27,4051,77,-18,-13
1201,-74,59,4061,68,-11,-11
1211,-75,60,4085,43,1,-1
1221,-70,51,4103,19,1,9
1231,-79,52,4119,-21,20,28
1241,-105,43,4110,-59,16,31
1251,-121,-27,4062,-36,10,21
1261,-121,-35,4088,13,0,-13
1271,-98,2,4084,16,-9,-25
1281,-107,26,4063,23,-9,-39
1291,-102,62,4072,35,-9,-61
1301,-91,50,4083,6,-16,-80
1311,-68,74,4086,-72,-13,-76
1321,-57,65,4077,-119,-3,-76
1331,-53,37,4071,-139,5,-68
1341,-90,-7,4061,-127,1,-82
1351,-74,-70,4080,-101,1,-103
1361,-90,-54,4078,-93,9,-106
1371,-99,-4,4076,-91,-1,-88
1382,-108,10,4051,-86,-11,-59
1392,-76,2,4060,-85,-24,-35
1402,-61,20,4051,-80,-19,-21
1412,-51,17,4089,-78,-2,-38
1422,-54,-20,4071,-95,16,-53
1432,-67,-18,4069,-99,26,-63
1442,-82,-44,4063,-91,27,-74
1452,-85,-13,4092,-97,30,-67
1462,-88,-20,4105,-122,33,-69
1472,-102,6,4112,-119,29,-95
1482,-76,121,4104,-127,33,-130
1492,-45,93,4143,-139,44,-165
1502,-70,53,4171,-126,17,-196
1512,-24,-16,4221,-91,34,-294
1522,67,-195,4151,-76,84,-309
1532,6,-195,4061,-103,275,-241
1542,4,-220,4041,43,461,-301
1552,-800,267,4094,-54,460,341
1562,-608,388,4018,-187,-4,497
1572,157,142,3963,-217,-62,139
1583,-1115,100,3923,-110,-136,-698
1593,151,-362,4071,-162,-187,-454
1603,510,-234,4068,-165,-111,126
1613,36,218,3953,-69,-17,85
1623,-91,236,4029,-106,105,-233
1633,-166,-79,4042,-156,70,-155
1643,-375,-311,4118,-125,31,-19
1653,-361,-336,4126,-48,-17,-36
1663,-162,-203,4098,35,-15,-141
1673,-64,-135,4118,74,13,-158
1683,-114,-117,4067,32,25,-93
1693,-215,-166,4034,-10,43,-72
1703,-262,-219,4007,-45,41,-89
1713,-261,-231,3967,-66,31,-87
1723,-234,-299,3975,-62,17,-71
1733,-165,-318,3995,-68,15,-72
1743,-140,-323,4008,-58,23,-65
1753,-152,-332,4028,-52,27,-61
1763,-149,-323,4019,-52,30,-53
1773,-171,-309,4035,-46,32,-52
1784,-191,-299,4029,-47,21,-46
1794,-179,-291,4011,-47,14,-43
1804,-189,-281,4007,-43,15,-28
1814,-191,-253,4015,-48,11,-24
1824,-188,-198,4022,-58,11,-22
1834,-170,-161,4049,-80,12,-14
1844,-196,-136,4034,-104,2,-1
1854,-228,-162,4088,-92,-3,-5
1864,-215,-122,4069,-88,-15,-1
1874,-179,-96,4092,-72,-20,-2
1884,-175,-105,4096,-37,-21,-5
1894,-166,-76,4075,-24,-24,-6
1904,-167,-37,4084,-4,-24,-22
1914,-176,-16,4106,-3,-23,-26
1924,-172,19,4125,-12,-26,-26
1934,-174,29,4116,-31,-27,-27
1944,-172,12,4096,-51,-30,-34
1954,-128,-3,4109,-67,-23,-37
1964,-136,-35,4086,-91,-19,-31
1974,-128,-57,4071,-101,-16,-41
1985,-124,-96,4083,-110,-21,-46
1995,-132,-151,4068,-104,-18,-51
2005,-117,-156,4064,-94,-22,-62
2015,-109,-145,4067,-51,-14,-78
2025,-76,-113,4111,-31,-10,-81
2035,-71,-46,4129,-31,-3,-96
2045,-47,33,4153,-62,11,-104
2055,-58,73,4134,-103,22,-121
2065,-60,76,4145,-118,36,-137
2075,-74,44,4157,-105,46,-156
2085,-76,4,4135,-89,49,-190
2095,-75,-5,4139,-88,68,-215
2105,-80,25,4114,-99,80,-240
2115,-110,36,4116,-117,90,-261
2125,-146,-6,4121,-121,88,-291
2135,-131,-44,4149,-121,88,-319
2145,-125,-39,4124,-106,87,-337
2155,-105,-41,4125,-98,100,-357
2165,-125,-26,4133,-110,109,-368
2175,-141,-27,4112,-140,111,-388
2186,-160,-74,4104,-157,118,-399
2196,-181,-123,4092,-167,123,-411
2206,-185,-143,4098,-185,126,-428
2216,-184,-168,4092,-205,132,-436
2226,-188,-217,4071,-217,137,-442
2236,-220,-285,4046,-196,131,-442
2246,-237,-358,4027,-163,120,-454
2256,-223,-373,4047,-137,118,-465
2266,-217,-351,3968,-110,122,-467
2276,-252,-339,3999,-123,132,-454
2286,-271,-346,4013,-131,124,-448
2296,-298,-365,3988,-151,116,-440
2306,-305,-408,3961,-160,106,-430
2316,-301,-456,3987,-152,93,-435
2326,-242,-549,3975,-138,89,-429
2336,-264,-575,4002,-134,88,-418
2346,-252,-575,3997,-127,90,-402
2356,-272,-572,3994,-116,81,-386
2366,-284,-605,3991,-121,69,-366
2376,-266,-584,3990,-125,59,-350
2387,-260,-601,3921,-109,38,-340
2397,-218,-658,3956,-89,27,-328
2407,-202,-647,3929,-75,23,-312
2417,-174,-610,3937,-62,30,-290
2427,-142,-566,3918,-82,43,-259
2437,-184,-527,3867,-105,59,-236
2447,-241,-565,3864,-100,71,-215
2457,-281,-589,3919,-112,66,-188
2467,-306,-569,3958,-129,50,-169
2477,-290,-537,3956,-134,40,-169
2487,-285,-555,4005,-140,43,-171
2497,-271,-605,3995,-174,50,-155
2507,-289,-595,3968,-194,64,-142
2517,-349,-623,3927,-181,67,-140
2527,-386,-650,3925,-145,63,-143
2537,-379,-675,3945,-110,61,-141
2547,-399,-618,3972,-104,75,-133
2557,-412,-533,3980,-116,73,-128
2567,-415,-516,4007,-145,74,-128
2577,-441,-522,4005,-189,69,-122
2588,-440,-574,3994,-209,62,-111
2598,-456,-593,3993,-223,56,-101
2608,-445,-598,4017,-218,54,-99
2618,-429,-579,4020,-223,44,-97
2628,-460,-595,4014,-205,33,-81
2638,-483,-633,4012,-181,13,-78
2648,-477,-690,3994,-117,-7,-80
2658,-436,-684,3993,-56,-22,-77
2668,-437,-639,4004,-14,-33,-75
2678,-407,-599,4028,6,-43,-67
2688,-387,-538,3991,10,-52,-55
2698,-375,-555,4003,-2,-63,-48
2708,-352,-595,3986,-5,-80,-35
2718,-326,-649,4011,31,-91,-23
2728,-292,-710,4012,72,-110,-14
2738,-238,-690,4000,126,-114,-8
2748,-195,-657,4002,167,-118,-6
2758,-148,-629,4015,182,-117,0
2768,-167,-607,3988,173,-125,12
2778,-145,-595,3954,173,-123,7
2789,-132,-606,3962,181,-127,1
2799,-104,-602,3954,182,-126,-4
2809,-78,-610,4009,192,-127,-7
2819,-61,-619,4032,192,-122,-3
2829,-67,-590,4006,205,-113,-5
2839,-58,-560,4014,219,-107,-10
2849,-68,-518,3978,226,-95,-18
2859,-70,-502,3976,239,-89,-9
2869,-93,-502,3949,261,-95,-10
2879,-86,-518,3979,294,-87,-13
2889,-69,-424,4021,293,-91,-16
2899,-75,-306,4038,281,-90,-4
2909,-51,-207,4058,231,-82,2
2919,-70,-172,4034,159,-75,18
2929,-67,-196,4062,90,-71,29
2939,-72,-233,4014,39,-70,42
2949,-62,-287,4006,22,-70,42
2959,-68,-352,3983,39,-68,36
2969,-54,-389,4010,50,-65,37
2979,-59,-353,4039,59,-64,39
2990,-57,-305,4059,51,-60,40
3000,-72,-257,4076,39,-59,33
3010,-71,-285,4070,18,-64,38
3020,-68,-275,4059,-12,-70,50
3030,-57,-285,4055,-31,-63,58
3040,-66,-303,4021,-36,-70,64
3050,-57,-337,4030,-27,-71,68
3060,-57,-351,4024,-5,-72,70
3070,-54,-358,4071,18,-68,63
3080,-63,-335,4084,20,-66,64
3090,-77,-297,4080,22,-66,57
3100,-74,-314,4062,23,-74,49
3110,-63,-334,4080,29,-67,52
3120,-50,-329,4056,25,-65,54
3130,-43,-294,4056,23,-60,53
3140,-41,-266,4066,-2,-49,52
3150,-33,-232,4071,-48,-45,48
3160,-20,-266,4037,-84,-44,51
3170,-35,-332,4044,-90,-39,44
3180,-20,-393,4021,-64,-37,37
3191,16,-388,4024,-36,-23,27
3201,26,-345,4031,-33,-14,27
3211,5,-289,4038,-47,1,18
3221,-12,-269,4047,-93,8,15
3231,-33,-269,4026,-148,15,17
3241,-40,-300,4021,-175,20,18
3251,-31,-324,4025,-204,16,18
3261,-30,-350,4038,-215,20,21
3271,-37,-380,4022,-204,24,21
3281,-59,-454,4029,-166,29,19
3291,-55,-472,4033,-134,32,15
3301,-53,-444,4034,-113,38,6
3311,-66,-385,4041,-115,43,11
3321,-69,-328,4041,-159,52,14
3331,-78,-307,4036,-221,59,15
3341,-75,-306,4044,-310,71,22
3351,-76,-283,4051,-432,88,42
3361,-91,-232,4061,-605,112,54
3371,-89,-198,4102,-820,139,72
3381,-116,-180,4094,-1065,160,96
3392,-142,-247,4026,-1300,177,121
3402,-162,-341,4023,-1496,192,138
3412,-179,-499,3994,-1649,207,161
3422,-201,-673,3944,-1765,206,183
3432,-206,-799,3953,-1845,220,187
3442,-178,-812,3984,-1996,237,195
3452,-203,-869,3889,-2089,239,201
3462,-270,-1065,3792,-2085,234,199
3472,-335,-1355,3717,-2016,208,193
3482,-355,-1632,3624,-1839,175,179
3492,-363,-1811,3631,-1596,153,161
3502,-372,-1864,3634,-1355,136,127
3512,-358,-1826,3618,-1103,120,94
3522,-376,-1779,3641,-900,96,66
3532,-390,-1750,3624,-734,72,47
3542,-416,-1730,3626,-592,34,41
3552,-407,-1720,3615,-475,8,34
3562,-398,-1713,3625,-379,0,27
3572,-394,-1704,3621,-305,-8,16
3582,-366,-1668,3644,-243,-10,-2
3593,-349,-1658,3667,-208,-15,-14
3603,-349,-1634,3672,-184,-11,-23
3613,-336,-1626,3667,-152,-11,-27
3623,-344,-1626,3662,-136,-5,-30
3633,-318,-1620,3624,-124,0,-40
3643,-325,-1603,3613,-118,11,-43
3653,-335,-1607,3606,-100,12,-38
3663,-296,-1614,3573,-76,4,-37
3673,-259,-1606,3565,-42,2,-38
3683,-207,-1641,3612,-14,8,-43
3693,-171,-1667,3668,-8,6,-35
3703,-170,-1681,3675,-5,16,-43
3713,-149,-1695,3697,14,27,-53
3723,-162,-1698,3718,13,37,-59
3733,-180,-1703,3675,1,46,-54
3743,-181,-1715,3660,-3,49,-53
3753,-212,-1721,3593,-1,44,-50
3763,-233,-1751,3601,19,42,-55
3773,-262,-1738,3599,40,42,-53
3783,-319,-1716,3610,60,33,-41
3794,-350,-1706,3647,85,12,-43
3804,-377,-1704,3675,97,-9,-25
3814,-400,-1716,3705,112,-25,-9
3824,-416,-1707,3702,125,-45,0
3834,-385,-1719,3720,144,-62,12
3844,-379,-1696,3713,153,-77,23
3854,-361,-1658,3689,160,-84,27
3864,-354,-1655,3685,166,-87,37
3874,-358,-1595,3679,164,-93,42
3884,-356,-1590,3663,146,-95,46
3894,-355,-1588,3678,134,-99,43
3904,-338,-1626,3688,114,-104,45
3914,-310,-1644,3682,113,-112,50
3924,-283,-1639,3688,118,-110,45
3934,-277,-1630,3687,131,-105,38
3944,-245,-1602,3664,140,-103,34
3954,-241,-1568,3679,140,-101,36
3964,-230,-1554,3679,130,-100,34
3974,-223,-1545,3685,120,-102,42
3984,-207,-1543,3709,121,-103,37
3995,-187,-1519,3702,119,-107,39
4005,-190,-1507,3714,127,-105,39
4015,-162,-1526,3744,139,-111,36
4025,-134,-1514,3790,149,-114,31
4035,-131,-1484,3783,165,-107,29
4045,-122,-1453,3792,171,-101,25
4055,-109,-1427,3792,157,-95,20
4065,-108,-1394,3790,146,-85,15
4075,-126,-1387,3817,129,-81,6
4085,-113,-1372,3815,119,-66,4
4095,-121,-1361,3798,105,-57,-8
4105,-110,-1352,3810,91,-31,-22
4115,-118,-1333,3788,72,-16,-30
4125,-132,-1333,3799,59,-3,-47
4135,-152,-1344,3805,48,9,-60
4145,-162,-1369,3800,38,22,-73
4155,-166,-1379,3817,38,37,-90
4165,-159,-1380,3839,32,45,-107
4175,-166,-1373,3815,23,54,-120
4185,-165,-1373,3827,29,62,-132
4196,-157,-1364,3812,20,79,-143
4206,-139,-1347,3827,5,86,-148
4216,-135,-1361,3801,-1,89,-156
4226,-125,-1362,3784,-11,104,-163
4236,-115,-1385,3779,-20,105,-174
4246,-132,-1406,3767,-26,112,-180
4256,-139,-1415,3768,-28,120,-185
4266,-143,-1436,3782,-26,120,-194
4276,-154,-1449,3778,-22,125,-192
4286,-180,-1454,3777,-23,128,-198
4296,-188,-1464,3749,-27,121,-197
4306,-194,-1457,3776,-27,117,-201
4316,-224,-1468,3769,-27,114,-202
4326,-229,-1492,3758,-25,113,-201
4336,-246,-1479,3744,-16,107,-202
4346,-261,-1494,3761,-15,93,-201
4356,-254,-1497,3743,-13,87,-195
4366,-263,-1494,3737,-10,80,-191
4376,-262,-1506,3727,-11,65,-186
4386,-240,-1514,3733,-7,64,-178
4397,-232,-1522,3729,-4,60,-176
4407,-236,-1523,3727,-4,54,-173
4417,-213,-1530,3708,0,44,-165
4427,-222,-1505,3726,-1,37,-162
4437,-231,-1508,3718,4,32,-156
4447,-240,-1505,3729,3,21,-146
4457,-253,-1497,3725,1,13,-140
4467,-252,-1503,3726,10,7,-130
4477,-263,-1494,3738,19,2,-118
4487,-282,-1490,3734,23,-3,-111
4497,-281,-1477,3748,27,-13,-102
4507,-281,-1474,3765,32,-17,-93
4517,-292,-1456,3762,33,-24,-92
4527,-282,-1463,3766,33,-21,-87
4537,-265,-1440,3751,39,-21,-84
4547,-246,-1465,3757,39,-24,-86
4557,-218,-1443,3734,36,-16,-86
4567,-205,-1421,3753,31,-11,-88
4577,-184,-1410,3750,14,-2,-92
4587,-172,-1407,3748,8,5,-88
4598,-142,-1406,3751,-4,10,-84
4608,-134,-1435,3771,-14,14,-84
4618,-129,-1436,3754,-18,17,-83
4628,-124,-1445,3774,-16,26,-76
4638,-113,-1449,3780,-12,21,-66
4648,-124,-1451,3794,-13,21,-65
4658,-130,-1425,3769,-8,18,-66
4668,-133,-1418,3778,-6,18,-60
4678,-161,-1425,3785,-10,11,-55
4688,-169,-1436,3774,-13,4,-54
4698,-188,-1457,3766,-18,-5,-51
4708,-195,-1468,3778,-21,-12,-48
4718,-184,-1476,3765,-15,-8,-47
4728,-171,-1486,3748,-7,-14,-47
4738,-194,-1475,3746,-8,-11,-40
4748,-188,-1459,3743,-10,-12,-39
4758,-188,-1456,3729,-15,-13,-34
4768,-187,-1470,3726,-17,-10,-28
4778,-200,-1467,3715,-21,-11,-28
4788,-189,-1473,3724,-17,-13,-21
4799,-200,-1473,3735,-22,-12,-17
4809,-181,-1480,3728,-20,-14,-6
4819,-178,-1485,3740,-18,-17,0
4829,-175,-1498,3743,-17,-22,5
4839,-156,-1488,3752,-8,-30,11
4849,-154,-1484,3768,-7,-35,15
4859,-145,-1484,3739,-1,-40,21
4869,-139,-1473,3746,7,-40,26
4879,-148,-1460,3744,4,-43,33
4889,-155,-1440,3745,-2,-47,40
4899,-162,-1441,3737,-8,-49,44
4909,-171,-1441,3743,-6,-50,50
4919,-172,-1446,3747,-5,-53,50
4929,-180,-1470,3744,-2,-54,50
4939,-178,-1477,3759,-5,-53,54
4949,-156,-1471,3745,2,-60,50
4959,-157,-1474,3764,3,-56,49
4969,-144,-1464,3749,5,-55,44
4979,-145,-1443,3743,12,-46,47
4989,-133,-1446,3774,-1,-44,46
5000,-130,-1443,3742,-10,-47,45
5010,-139,-1451,3747,-7,-40,48
5020,-131,-1446,3738,2,-42,40
5030,-113,-1464,3754,5,-40,46
5040,-115,-1455,3760,3,-34,50
5050,-128,-1450,3773,5,-36,46
5060,-115,-1433,3765,3,-33,47
5070,-119,-1445,3773,3,-34,53
5080,-121,-1455,3784,0,-36,51
5090,-101,-1451,3764,-5,-35,53
5100,-105,-1446,3767,6,-37,50
5110,-105,-1445,3761,17,-31,52
5120,-98,-1437,3765,14,-32,56
5130,-108,-1420,3749,14,-22,44
5140,-101,-1406,3753,10,-16,45
5150,-112,-1399,3764,0,-8,45
5160,-134,-1391,3755,-7,3,44
5170,-147,-1389,3755,-20,4,38
5180,-151,-1388,3756,-25,13,35
5190,-179,-1409,3761,-29,18,35
5201,-171,-1413,3770,-26,20,35
5211,-164,-1416,3776,-26,23,32
5221,-177,-1413,3766,-26,25,26
5231,-190,-1417,3778,-26,23,25
5241,-189,-1431,3784,-27,24,22
5251,-181,-1420,3773,-25,23,22
5261,-186,-1427,3771,-24,26,24
5271,-183,-1438,3764,-27,21,18
5281,-170,-1426,3760,-20,22,24
5291,-169,-1419,3750,-24,23,17
5301,-171,-1439,3759,-22,23,24
5311,-166,-1419,3764,-12,22,18
5321,-164,-1448,3767,-18,16,14
5331,-159,-1454,3759,-27,21,18
5341,-147,-1466,3749,-22,25,10
5351,-161,-1468,3757,-17,27,12
5361,-166,-1460,3758,-23,23,10
5371,-163,-1463,3771,-24,22,9
5381,-173,-1462,3759,-26,25,7
5391,-161,-1452,3734,-25,22,11
5402,-176,-1458,3727,-28,21,16
5412,-171,-1474,3732,-21,25,15
5422,-192,-1495,3740,-16,27,14
5432,-186,-1475,3749,-12,20,16
5442,-200,-1485,3736,-10,18,18
5452,-196,-1482,3733,-16,16,17
5462,-203,-1502,3731,-10,9,17
5472,-202,-1503,3735,-7,14,18
5482,-198,-1516,3716,-8,3,22
5492,-195,-1521,3728,0,8,24
5502,-189,-1508,3701,1,0,21
5512,-187,-1498,3708,-2,10,31
5522,-192,-1487,3690,-6,2,27
5532,-176,-1493,3713,-3,3,35
5542,-196,-1498,3702,-5,1,37
5552,-200,-1505,3705,2,1,39
5562,-177,-1492,3709,6,-1,43
5572,-199,-1501,3726,5,-1,44
5582,-184,-1484,3722,6,-2,43
5592,-187,-1500,3714,7,-5,45
5603,-197,-1486,3738,15,-4,48
5613,-191,-1470,3745,14,-9,49
5623,-202,-1472,3767,13,-16,54
5633,-194,-1459,3756,13,-19,49
5643,-183,-1458,3748,17,-25,52
5653,-174,-1448,3796,18,-30,53
5663,-174,-1440,3762,26,-36,50
5673,-174,-1429,3798,20,-32,56
5683,-178,-1398,3817,32,-40,55
5693,-166,-1389,3837,33,-36,51
5703,-165,-1387,3829,35,-35,47
5713,-153,-1390,3866,39,-30,45
5723,-120,-1393,3900,17,-27,39
5733,-74,-1367,3903,-19,-15,26
5743,-36,-1366,3891,-72,14,12
5753,-31,-1364,3917,-139,39,-1
5763,-21,-1369,3912,-261,63,8
5773,-67,-1348,3872,-372,68,14
5783,-116,-1393,3902,-442,74,27
5793,-173,-1438,3824,-484,57,45
5804,-207,-1527,3732,-457,39,54
5814,-197,-1646,3617,-373,20,64
5824,-160,-1702,3552,-280,11,62
5834,-133,-1710,3486,-149,13,47
5844,-128,-1701,3547,-49,17,31
5854,-142,-1601,3647,-19,14,16
5864,-158,-1487,3759,-20,21,10
5874,-169,-1417,3781,-46,17,10
5884,-196,-1422,3802,-97,23,13
5894,-216,-1492,3791,-127,25,19
5904,-248,-1568,3754,-128,22,29
5914,-240,-1584,3721,-93,36,16
5924,-238,-1537,3721,-43,45,-1
5934,-237,-1465,3752,-14,59,-21
5944,-241,-1394,3847,-9,63,-30
5954,-237,-1369,3934,-24,73,-41
5964,-177,-1389,4058,-67,80,-44
5974,-116,-1433,4060,-151,85,-44
5984,-78,-1459,3983,-201,112,-54
5994,-83,-1500,3893,-226,139,-73
6005,-114,-1491,3803,-217,166,-92
6015,-166,-1481,3764,-198,183,-106
6025,-203,-1518,3726,-156,188,-124
6035,-196,-1580,3737,-134,185,-132
6045,-169,-1623,3749,-155,181,-134
6055,-154,-1566,3756,-134,190,-154
6065,-138,-1539,3789,-74,204,-179
6075,-129,-1562,3851,-67,217,-190
6085,-132,-1585,3863,-107,233,-184
6095,-157,-1566,3816,-167,250,-192
6105,-169,-1563,3740,-209,264,-209
6115,-174,-1598,3746,-218,283,-225
6125,-175,-1677,3798,-191,296,-250
6135,-186,-1748,3836,-90,304,-280
6145,-143,-1805,3796,24,320,-327
6155,-123,-1735,3755,120,333,-370
6165,-121,-1573,3671,199,352,-414
6175,-135,-1387,3624,227,369,-456
6185,-179,-1223,3532,207,376,-500
6195,-243,-1133,3486,165,384,-524
6205,-321,-1121,3473,115,379,-523
6215,-381,-1194,3450,68,362,-520
6225,-430,-1260,3420,25,341,-553
6235,-438,-1320,3414,-3,327,-582
6245,-435,-1488,3460,3,315,-594
6256,-388,-1623,3416,-42,274,-613
6266,-424,-1585,3481,-80,334,-607
6276,-511,-1774,3678,225,353,-596
6286,-575,-1763,3750,276,350,-637
6296,-578,-1606,3810,381,309,-662
6306,-486,-1564,3878,512,324,-699
6316,-448,-1425,3843,488,343,-722
6326,-434,-1251,3724,404,374,-736
6336,-457,-1178,3676,332,411,-732
6346,-488,-1137,3675,258,434,-721
6356,-548,-1132,3643,168,445,-714
6366,-554,-1163,3685,105,436,-711
6376,-526,-1164,3704,6,447,-708
6386,-515,-1172,3724,-85,452,-705
6396,-508,-1246,3738,-187,461,-688
6406,-517,-1359,3726,-287,452,-659
6416,-520,-1483,3690,-367,445,-638
6426,-531,-1614,3667,-393,429,-623
6436,-528,-1754,3661,-412,412,-595
6446,-521,-1837,3608,-435,395,-561
6456,-506,-1907,3545,-440,379,-546
6466,-489,-1940,3510,-458,367,-510
6476,-507,-1990,3449,-472,351,-477
6486,-525,-2078,3406,-493,330,-434
6496,-542,-2169,3353,-507,303,-399
6507,-530,-2274,3273,-524,271,-355
6517,-537,-2352,3208,-527,242,-324
6527,-563,-2429,3162,-517,216,-289
6537,-570,-2466,3114,-502,184,-259
6547,-601,-2545,3120,-438,142,-221
6557,-607,-2621,3143,-365,97,-181
6567,-591,-2662,3157,-283,50,-138
6577,-567,-2687,3182,-199,11,-90
6587,-544,-2702,3182,-100,-21,-41
6597,-530,-2711,3191,-12,-47,22
6607,-554,-2661,3162,56,-75,69
6617,-555,-2581,3104,99,-108,116
6627,-558,-2457,3067,107,-134,159
6637,-559,-2332,3057,82,-158,200
6647,-584,-2290,3063,47,-176,244
6657,-589,-2270,3088,1,-202,291
6667,-586,-2253,3116,-28,-230,328
6677,-581,-2263,3195,-29,-256,358
6687,-538,-2292,3248,-24,-276,392
6697,-530,-2328,3315,17,-300,423
6707,-509,-2331,3344,75,-322,446
6717,-507,-2305,3348,152,-341,460
6727,-494,-2238,3351,244,-360,471
6737,-513,-2179,3383,321,-381,491
6747,-503,-2079,3384,375,-404,512
6758,-498,-1982,3404,397,-418,531
6768,-495,-1912,3444,409,-429,549
6778,-482,-1845,3485,393,-447,569
6788,-477,-1774,3483,358,-461,582
6798,-470,-1754,3521,335,-470,602
6808,-471,-1742,3562,302,-478,608
6818,-438,-1741,3563,273,-485,633
6828,-430,-1735,3608,267,-491,635
6838,-435,-1684,3639,233,-497,653
6848,-436,-1623,3622,197,-503,648
6858,-407,-1626,3625,234,-501,649
6868,-421,-1682,3639,245,-508,655
6878,-408,-1683,3640,246,-514,659
6888,-384,-1662,3647,252,-526,656
6898,-331,-1594,3647,258,-517,645
6908,-334,-1574,3650,259,-511,645
6918,-356,-1522,3668,267,-508,636
6928,-344,-1475,3667,267,-513,636
6938,-337,-1470,3692,245,-515,629
6948,-301,-1465,3701,241,-519,631
6958,-281,-1481,3738,234,-526,632
6968,-250,-1483,3717,226,-525,626
6978,-197,-1465,3754,253,-518,611
6988,-189,-1405,3774,275,-512,602
6998,-193,-1342,3808,276,-504,589
7009,-179,-1275,3826,286,-510,580
7019,-153,-1230,3863,292,-510,568
7029,-123,-1203,3897,299,-508,562
7039,-102,-1178,3947,311,-498,548
7049,-76,-1173,3961,337,-494,521
7059,-70,-1134,3973,372,-480,503
7069,-54,-1070,3985,410,-463,470
7079,-6,-991,4000,418,-436,444
7089,-1,-929,4009,407,-409,412
7099,18,-877,4019,379,-373,385
7109,31,-831,4027,340,-342,351
7119,35,-830,4064,281,-311,318
7129,54,-828,4076,232,-275,275
7139,73,-864,4069,177,-236,232
7149,103,-871,4078,114,-194,178
7159,111,-918,4076,72,-136,125
7169,101,-947,4079,46,-82,75
7179,106,-936,4075,37,-42,22
7189,118,-870,4078,34,-1,-27
7199,135,-815,4080,8,34,-67
7210,147,-759,4076,-34,68,-96
7220,150,-780,4055,-85,95,-129
7230,168,-849,4050,-111,118,-159
7240,139,-938,4021,-146,136,-175
7250,116,-1042,4000,-159,152,-192
7260,89,-1089,3953,-152,164,-220
7270,76,-1114,3931,-146,178,-241
7280,78,-1145,3913,-168,185,-254
7290,61,-1169,3890,-184,198,-261
7300,40,-1221,3863,-198,210,-270
7310,24,-1270,3835,-209,215,-278
7320,-2,-1318,3832,-221,216,-272
7330,-18,-1354,3809,-228,209,-275
7340,-53,-1370,3809,-235,213,-277
7350,-64,-1407,3787,-229,213,-274
7360,-82,-1438,3782,-221,207,-274
7370,-105,-1462,3773,-217,206,-264
7380,-122,-1470,3729,-214,199,-261
7390,-137,-1464,3700,-207,200,-261
7400,-153,-1499,3697,-197,202,-251
7411,-168,-1498,3703,-192,194,-247
7421,-199,-1487,3708,-190,195,-235
7431,-193,-1507,3697,-190,190,-224
7441,-233,-1533,3677,-190,186,-212
7451,-242,-1540,3691,-199,180,-204
7461,-248,-1567,3681,-196,173,-191
7471,-250,-1598,3682,-195,164,-185
7481,-272,-1605,3671,-185,158,-169
7491,-269,-1621,3664,-170,147,-161
7501,-280,-1623,3692,-156,135,-150
7511,-271,-1619,3667,-145,122,-136
7521,-291,-1628,3639,-139,105,-121
7531,-294,-1629,3650,-134,96,-107
7541,-293,-1634,3647,-124,86,-90
7551,-277,-1645,3645,-114,76,-78
7561,-272,-1668,3631,-104,70,-59
7571,-278,-1678,3629,-91,52,-49
7581,-288,-1678,3634,-74,44,-37
7591,-284,-1680,3633,-58,36,-25
7601,-283,-1675,3641,-41,25,-17
7612,-272,-1637,3652,-24,21,-10
7622,-263,-1642,3661,-13,16,4
7632,-251,-1624,3660,-12,13,10
7642,-250,-1611,3652,-17,11,17
7652,-252,-1602,3669,-12,6,22
7662,-255,-1601,3669,-15,8,26
7672,-247,-1578,3684,-15,4,30
7682,-251,-1552,3696,-16,0,41
7692,-249,-1546,3724,-15,-3,45
7702,-264,-1547,3710,-10,-11,50
7712,-258,-1529,3720,-6,-9,49
7722,-265,-1519,3728,-5,-17,54
7732,-268,-1520,3735,-8,-21,55
7742,-262,-1516,3717,-5,-26,54
7752,-293,-1508,3739,-9,-31,50
7762,-269,-1510,3718,1,-29,47
7772,-284,-1506,3755,0,-30,50
7782,-279,-1517,3743,-4,-34,48
7792,-299,-1516,3745,-3,-30,49
7802,-287,-1495,3751,-6,-32,44
7813,-300,-1510,3754,-2,-35,38
7823,-280,-1487,3758,-12,-34,37
7833,-263,-1504,3744,-10,-41,32
7843,-281,-1497,3742,-9,-35,31
7853,-273,-1502,3749,-14,-32,32
7863,-271,-1489,3721,-7,-30,30
7873,-269,-1504,3741,-2,-35,29
7883,-257,-1499,3751,-4,-35,24
7893,-255,-1493,3745,-5,-38,24
7903,-257,-1483,3742,-7,-41,18
7913,-242,-1509,3746,-10,-45,21
7923,-239,-1521,3741,-5,-49,14
7933,-232,-1522,3760,0,-50,17
7943,-219,-1504,3748,4,-51,15
7953,-209,-1493,3759,2,-47,11
7963,-202,-1485,3738,3,-40,19
7973,-193,-1492,3734,-4,-38,15
7983,-199,-1511,3724,-9,-34,12
7993,-210,-1518,3720,-9,-31,8
8003,-201,-1499,3711,-3,-27,6
8014,-198,-1490,3718,-12,-17,10
8024,-216,-1488,3697,-14,-22,12
8034,-222,-1498,3735,-23,-21,9
8044,-215,-1511,3731,-22,-19,6
8054,-229,-1526,3759,-25,-18,11
8064,-222,-1533,3756,-22,-23,8
8074,-225,-1540,3751,-20,-25,10
8084,-219,-1545,3732,-9,-34,8
8094,-208,-1545,3730,1,-35,5
8104,-199,-1532,3711,4,-35,6
8114,-195,-1517,3715,5,-34,13
8124,-201,-1507,3716,2,-42,15
8134,-202,-1510,3715,0,-42,10
8144,-198,-1519,3721,-3,-42,16
8154,-180,-1519,3717,-3,-42,24
8164,-204,-1542,3729,-3,-46,15
8174,-187,-1542,3734,-1,-46,17
8184,-190,-1532,3728,1,-47,17
8194,-181,-1543,3730,9,-44,20
8204,-183,-1524,3741,4,-45,17
8215,-187,-1511,3725,0,-43,15
8225,-176,-1498,3738,1,-42,21
8235,-181,-1501,3723,1,-40,20
8245,-175,-1503,3730,-1,-38,15
8255,-154,-1505,3717,-1,-37,19
8265,-169,-1494,3748,1,-39,12
8275,-164,-1491,3730,-4,-33,15
8285,-182,-1494,3740,-4,-31,17
8295,-176,-1495,3732,-5,-28,10
8305,-175,-1490,3755,-9,-28,7
8315,-170,-1485,3765,-7,-29,7
8325,-176,-1487,3757,-5,-26,6
8335,-170,-1488,3761,-6,-26,4
8345,-183,-1492,3765,-9,-25,2
8355,-184,-1483,3749,-7,-25,1
8365,-175,-1488,3742,-7,-25,-1
8375,-170,-1481,3762,-4,-27,1
8385,-175,-1487,3757,-2,-28,-6
8395,-163,-1494,3740,-1,-28,-5
8405,-158,-1470,3734,-8,-26,-5
8416,-166,-1484,3744,-9,-24,-10
8426,-162,-1499,3753,-15,-24,-8
8436,-169,-1503,3738,-20,-21,-12
8446,-170,-1509,3734,-15,-19,-10
8456,-153,-1501,3737,-16,-18,-12
8466,-154,-1511,3714,-15,-20,-7
8476,-163,-1511,3722,-10,-17,-5
8486,-156,-1516,3721,-12,-17,-8
8496,-166,-1509,3729,-11,-15,-4
8506,-158,-1504,3712,-17,-16,-2
8516,-154,-1531,3718,-20,-18,-2
8526,-164,-1528,3721,-17,-21,-4
8536,-163,-1538,3732,-13,-21,-3
8546,-162,-1533,3727,-8,-22,6
8556,-158,-1531,3723,-12,-22,7
8566,-180,-1524,3723,-9,-25,9
8576,-172,-1520,3735,-11,-22,12
8586,-156,-1516,3730,-7,-23,10
8596,-169,-1527,3720,-6,-28,2
8606,-159,-1522,3735,-2,-28,12
8617,-160,-1506,3736,-1,-25,6
8627,-160,-1528,3719,-2,-27,6
8637,-155,-1495,3743,0,-21,7
8647,-148,-1507,3734,-2,-27,-1
8657,-141,-1497,3747,-2,-19,0
8667,-130,-1499,3736,-15,-15,0
8677,-126,-1490,3728,-12,-10,1
8687,-127,-1509,3738,-7,-8,1
8697,-134,-1492,3748,-8,-11,-3
8707,-114,-1491,3737,-14,-8,-5
8717,-122,-1503,3745,-15,-10,-2
8727,-130,-1504,3734,-17,-11,-3
8737,-140,-1501,3736,-14,-4,-2
8747,-147,-1504,3740,-3,-7,-2
8757,-162,-1506,3733,0,-8,-3
8767,-152,-1503,3748,-8,-11,-7
8777,-151,-1503,3726,-12,-10,-8
8787,-159,-1513,3728,-9,-11,-10
8797,-147,-1523,3733,-3,-8,-12
8807,-140,-1531,3729,-5,-8,-13
8818,-141,-1526,3710,-4,-10,-15
8828,-143,-1515,3719,-6,-5,-11
8838,-138,-1509,3715,-7,0,-9
8848,-135,-1519,3702,-6,1,-6
8858,-129,-1526,3696,-10,9,-7
8868,-135,-1518,3705,-7,10,-2
8878,-140,-1509,3707,-14,13,-1
8888,-147,-1512,3711,-12,16,-3
8898,-153,-1498,3713,-11,17,1
8908,-152,-1511,3725,-10,19,3
8918,-162,-1535,3738,-10,18,5
8928,-166,-1534,3739,-4,15,3
8938,-161,-1530,3767,-3,9,2
8948,-157,-1512,3759,4,12,5
8958,-141,-1515,3763,-4,6,1
8968,-156,-1502,3750,-6,9,1
8978,-151,-1501,3722,-7,12,-3
8988,-140,-1506,3725,-9,12,-1
8998,-130,-1499,3715,-5,13,-3
9008,-129,-1503,3711,-4,16,-2
9023,-123,-1483,3716,-6,14,1
9033,-118,-1505,3711,-9,19,-1
9043,-137,-1493,3738,-12,17,1
9053,-155,-1484,3724,-11,19,4
9063,-159,-1501,3745,-13,19,0
9073,-173,-1486,3750,-21,16,-3
9083,-169,-1488,3757,-21,16,-2
9093,-182,-1503,3752,-13,16,-9
9103,-166,-1503,3755,-15,15,-5
9113,-191,-1497,3755,-10,14,-8
9123,-181,-1490,3732,-8,13,-2
9133,-185,-1483,3734,-9,14,-5
9143,-200,-1480,3723,-9,13,-5
9153,-189,-1502,3720,-15,9,-3
9163,-186,-1495,3728,-12,12,1
9173,-206,-1494,3733,-15,8,1
9183,-211,-1506,3735,-12,7,4
9193,-204,-1523,3746,-13,8,1
9203,-219,-1504,3743,-12,3,1
9213,-218,-1524,3730,-5,0,1
9223,-206,-1514,3728,-3,3,4
9233,-187,-1531,3733,-5,3,-1
9243,-191,-1509,3733,-2,3,5
9253,-174,-1516,3714,-3,1,-1
9263,-162,-1503,3733,-2,4,-2
9273,-163,-1499,3733,-4,-1,0
9283,-145,-1511,3728,-4,4,2
9293,-155,-1514,3727,-13,6,0
9303,-142,-1517,3727,-10,4,4
9313,-125,-1515,3723,-18,5,6
9323,-143,-1520,3714,-16,11,8
9333,-138,-1515,3730,-20,5,11
9343,-153,-1507,3724,-12,5,7
9353,-174,-1510,3733,-14,3,7
9363,-171,-1522,3721,-16,3,8
9373,-177,-1503,3727,-13,2,5
9383,-186,-1510,3745,-10,2,7
9393,-195,-1509,3732,-7,2,11
9403,-195,-1507,3746,-11,-4,8
9413,-201,-1501,3759,-8,-2,11
9423,-204,-1496,3748,-2,-1,9
9433,-219,-1501,3739,-3,-2,5
9443,-213,-1495,3738,-7,0,10
9453,-201,-1483,3736,-8,-4,5
9463,-197,-1503,3747,-11,-4,5
9473,-203,-1499,3733,-6,-1,7
9483,-189,-1497,3716,-8,-3,10
9493,-190,-1491,3733,-4,-5,8
9503,-181,-1511,3732,-3,-2,3
9513,-167,-1496,3731,-10,0,6
9523,-168,-1487,3735,-7,-4,5
9533,-164,-1482,3720,-12,2,7
9543,-165,-1523,3758,-13,0,6
9553,-158,-1505,3728,-12,-5,5
9563,-171,-1489,3746,-13,-2,4
9573,-169,-1510,3736,-9,-5,9
9583,-156,-1510,3734,-8,-4,3
9593,-169,-1510,3727,-10,-10,5
9603,-157,-1512,3737,-13,-6,5
9613,-169,-1508,3723,-9,-9,9
9623,-167,-1502,3732,-2,-6,2
9633,-164,-1516,3729,0,-11,3
9643,-172,-1507,3733,0,-11,2
9653,-164,-1508,3735,2,-12,4
9663,-165,-1514,3746,1,-15,0
9673,-181,-1507,3743,-4,-11,-3
9683,-174,-1487,3743,-6,-15,2
9693,-170,-1488,3736,-9,-15,-8
9703,-177,-1489,3731,-5,-7,-1
9713,-170,-1510,3731,-6,-8,-5
9723,-156,-1513,3718,-9,-6,-3
9733,-146,-1497,3723,0,-1,-6
9743,-160,-1498,3714,-2,6,-3
9753,-187,-1490,3714,-8,5,1
9763,-176,-1477,3730,-15,7,5
9773,-186,-1488,3725,-17,12,4
9783,-197,-1497,3723,-20,6,8
9793,-212,-1516,3724,-17,7,6
9803,-203,-1512,3747,-16,5,7
9813,-204,-1530,3760,-11,3,3
9823,-209,-1510,3776,-4,-3,-1
9833,-183,-1500,3757,-3,-8,0
9843,-210,-1513,3756,-2,-8,0
9853,-202,-1508,3737,-6,-14,-3
9863,-191,-1505,3735,-5,-10,4
9873,-196,-1500,3725,-2,-14,7
9883,-181,-1481,3726,0,-13,2
9893,-174,-1491,3733,2,-16,5
9903,-176,-1477,3727,-4,-14,8
9913,-160,-1478,3722,-9,-12,6
9923,-159,-1503,3738,-8,-8,10
9933,-182,-1501,3741,-7,-6,6
9943,-162,-1492,3748,-10,-5,2
9953,-170,-1492,3749,-6,-1,3
9963,-168,-1496,3751,-7,0,1
9973,-177,-1494,3722,-9,3,-3
9983,-153,-1499,3728,-10,3,-5
9993,-163,-1492,3747,-10,6,-4
10003,-152,-1494,3744,-8,10,-5
10013,-160,-1496,3741,-11,8,-5
10023,-165,-1489,3724,-11,6,-3
10033,-176,-1510,3736,-12,10,-5
10043,-152,-1501,3741,-14,12,-4
10053,-158,-1508,3742,-9,7,-7
10063,-170,-1514,3738,-14,5,0
10073,-176,-1490,3733,-13,7,-1
10083,-175,-1511,3723,-13,6,-8
10093,-188,-1514,3731,-8,8,4
10103,-187,-1519,3748,-8,4,-1
10113,-189,-1514,3736,-10,4,-4
10123,-195,-1496,3734,-8,2,0
10133,-191,-1499,3743,-7,-5,-2
10143,-194,-1506,3728,-4,-2,4
10153,-195,-1512,3728,-7,-3,3
10163,-198,-1505,3728,-7,-2,-2
10173,-198,-1491,3735,-7,-10,-3
10183,-189,-1490,3733,-7,-8,5
10194,-172,-1511,3719,-12,-3,2
10204,-169,-1517,3737,-8,-4,2
10214,-165,-1510,3716,-9,-7,7
10224,-164,-1509,3728,-3,-4,5
10234,-165,-1489,3736,-3,-1,2
10244,-167,-1488,3739,-6,-6,3
10254,-158,-1493,3745,-5,-7,1
10264,-172,-1504,3723,-6,-6,5
10274,-152,-1489,3745,-8,-4,-1
10284,-167,-1498,3729,-8,-2,1
10294,-166,-1498,3737,-8,-3,3
10304,-169,-1482,3730,-11,-2,-3
10314,-177,-1474,3740,-10,-1,-3
10324,-155,-1493,3741,-12,2,3
10334,-192,-1494,3741,-13,1,2
10344,-194,-1483,3748,-15,3,1
10354,-191,-1493,3736,-14,-1,-6
10365,-190,-1493,3736,-8,6,-4
10375,-209,-1487,3741,-13,3,-3
10385,-208,-1496,3740,-10,7,-4
10395,-216,-1487,3743,-13,5,0
10405,-220,-1502,3730,-15,2,-4
10415,-201,-1492,3717,-9,6,-9
10425,-203,-1512,3733,-8,7,-1
10435,-201,-1495,3713,-15,9,-2
10445,-188,-1515,3719,-14,8,-4
10455,-187,-1500,3725,-16,5,-4
10465,-195,-1512,3724,-15,6,-3
10475,-183,-1522,3719,-18,2,2
10485,-185,-1500,3707,-21,4,-3
10495,-182,-1513,3723,-19,0,1
10505,-180,-1509,3721,-11,-2,1
10515,-194,-1511,3747,-14,3,9
10526,-208,-1518,3730,-9,-5,10
10536,-191,-1510,3746,-5,-8,13
10546,-190,-1510,3744,-12,-10,8
10556,-213,-1503,3746,-6,-9,8
10566,-223,-1508,3739,-4,-12,5
10576,-210,-1506,3751,-1,-15,3
10586,-195,-1507,3727,-3,-12,5
10596,-192,-1497,3731,-7,-11,8
10606,-180,-1489,3723,-10,-6,3
10616,-179,-1487,3726,-17,-6,4
10626,-178,-1481,3719,-16,-2,1
10636,-181,-1507,3730,-19,-2,5
10646,-188,-1477,3714,-16,-2,-1
10656,-198,-1506,3728,-15,2,6
10666,-222,-1510,3736,-11,5,8
10676,-203,-1500,3730,-14,2,8
10686,-209,-1508,3744,-14,1,6
10697,-210,-1525,3732,-9,1,0
10707,-193,-1534,3754,-10,-4,3
10717,-188,-1528,3737,-12,-6,9
10727,-190,-1521,3742,-8,-9,8
10737,-171,-1518,3738,0,-15,8
10747,-167,-1504,3731,-2,-13,2
10757,-163,-1517,3743,-4,-10,7
10767,-167,-1497,3728,1,-13,13
10777,-159,-1514,3728,-3,-9,13
10787,-162,-1502,3722,0,-13,8
10797,-145,-1509,3720,0,-8,8
10807,-160,-1500,3736,-5,-7,8
10817,-160,-1504,3724,-5,-2,7
10827,-175,-1475,3732,-8,-4,0
10837,-174,-1480,3730,-5,4,3
10847,-180,-1488,3733,-11,2,0
10857,-182,-1482,3733,-9,3,1
10868,-188,-1475,3762,-11,4,-1
10878,-196,-1490,3748,-6,6,-7
10888,-198,-1482,3752,-4,2,-6
10898,-210,-1485,3745,-4,4,-7
10908,-181,-1482,3758,-5,7,-4
10918,-203,-1477,3749,-4,4,-7
10928,-186,-1495,3746,-4,6,-8
10938,-186,-1476,3735,-9,10,-9
10948,-188,-1493,3746,-14,5,-4
10958,-195,-1486,3731,-16,6,-7
10968,-179,-1483,3749,-13,6,-6
10978,-173,-1501,3741,-10,5,-9
10988,-182,-1492,3740,-12,3,-9
10998,-179,-1506,3734,-11,4,-9
11008,-184,-1517,3749,-10,5,-5
11018,-202,-1511,3749,-9,2,-8
11029,-193,-1506,3747,-13,-1,-3
11039,-192,-1513,3732,-14,1,-7
11049,-194,-1514,3736,-10,5,-4
11059,-197,-1506,3709,-11,0,-7
11069,-195,-1509,3729,-14,0,0
11079,-195,-1514,3717,-8,-1,-5
11089,-185,-1515,3719,-18,-1,0
11099,-212,-1510,3727,-15,1,2
11109,-210,-1512,3703,-17,1,2
11119,-188,-1507,3735,-14,5,1
11129,-197,-1496,3740,-15,8,0
11139,-203,-1518,3724,-10,5,5
11149,-232,-1490,3726,-11,10,5
11159,-228,-1496,3719,-14,9,8
11169,-215,-1496,3745,-16,5,0
11179,-219,-1497,3754,-13,5,7
11189,-217,-1503,3742,-16,5,0
11199,-214,-1500,3749,-12,4,-3
11209,-216,-1502,3747,-17,2,-2
11219,-202,-1494,3739,-15,3,2
11230,-188,-1493,3740,-12,8,6
11240,-184,-1506,3737,-20,8,-1
11250,-196,-1496,3733,-15,5,-1
11260,-203,-1495,3739,-14,6,-1
11270,-191,-1521,3747,-15,-1,-2
11280,-203,-1513,3751,-16,2,-5
11290,-202,-1506,3732,-14,1,-2
11300,-212,-1511,3735,-9,0,-4
11310,-207,-1512,3747,-5,1,-5
11320,-201,-1509,3719,-14,2,-9
11330,-208,-1502,3728,-9,1,-6
11340,-210,-1514,3717,-17,5,-5
11350,-205,-1504,3718,-15,6,-1
11360,-197,-1510,3711,-11,11,0
11370,-213,-1514,3731,-15,7,-5
11380,-201,-1514,3742,-21,6,-11
11390,-189,-1517,3743,-20,3,-15
11400,-197,-1525,3746,-18,6,-13
11410,-167,-1552,3762,-11,3,-11
11420,-160,-1558,3745,-14,3,-12
11431,-129,-1558,3699,-9,9,-12
11441,-122,-1552,3708,-4,12,-16
11451,-149,-1536,3724,-13,13,-17
11461,-161,-1546,3809,-9,13,-7
11471,-191,-1583,3836,-21,-13,2
11481,-163,-1615,3840,-11,-25,1
11491,-101,-1665,3869,29,-32,9
11501,-27,-1675,3867,37,-34,13
11511,8,-1670,3831,69,-25,8
11521,48,-1674,3873,84,-18,7
11531,87,-1686,3965,54,-3,17
11541,117,-1679,4046,-22,21,34
11551,165,-1541,4146,-156,52,42
11561,146,-1398,4178,-272,87,60
11571,121,-1482,4327,-398,124,92
11581,119,-1640,4310,-625,127,151
11591,119,-1685,4228,-751,162,189
11601,121,-1671,4154,-833,200,195
11611,100,-1549,4030,-900,248,189
11621,34,-1444,3868,-884,263,170
11632,3,-1551,3855,-817,293,167
11642,-36,-1714,3794,-807,303,164
11652,-84,-1747,3671,-722,323,128
11662,-97,-1811,3675,-575,321,73
11672,-102,-1839,3676,-480,332,51
11682,-129,-1744,3571,-417,335,37
11692,-198,-1614,3454,-343,330,-4
11702,-243,-1507,3466,-310,319,-49
11712,-332,-1505,3483,-277,304,-86
11722,-381,-1564,3533,-210,273,-119
11732,-425,-1680,3530,-159,236,-151
11742,-425,-1834,3540,-87,218,-176
11752,-434,-1843,3369,-19,207,-186
11762,-459,-1932,3357,164,214,-181
11772,-471,-1993,3390,280,207,-165
11782,-501,-1887,3523,365,236,-196
11792,-446,-1698,3511,408,221,-279
11802,-349,-1458,3744,322,319,-280
11812,-401,-1258,3837,87,387,-191
11822,-527,-1152,3851,-216,418,-98
11833,-615,-1146,3704,-503,391,-91
11843,-588,-1394,3603,-695,353,-89
11853,-582,-1686,3563,-820,332,-58
11863,-516,-1828,3510,-797,300,-62
11873,-366,-1898,3570,-625,270,-107
11883,-139,-1870,4004,-345,274,-183
11893,159,-1713,4239,-142,286,-266
11903,464,-1664,4451,90,353,-332
11913,798,-1656,4782,281,437,-460
11923,968,-1400,4866,461,606,-636
11933,1036,-1103,5004,665,769,-779
11943,1040,-698,5278,788,937,-914
11953,930,-357,5621,826,1100,-1066
11963,624,-236,5915,852,1281,-1186
11973,232,-229,5996,949,1384,-1365
11983,112,-317,6027,1130,1358,-1592
11993,347,-285,6020,1354,1309,-1785
12003,668,-160,6023,1661,1339,-1957
12013,932,-20,5960,2019,1437,-2131
12023,726,-137,5735,2204,1564,-2338
12039,494,142,5414,2356,1678,-2676
12049,319,380,5117,2550,1724,-2976
12059,151,534,4802,2612,1723,-3151
12069,3,700,4455,2647,1686,-3309
12079,-52,766,4178,2534,1652,-3487
12089,-68,876,3827,2325,1613,-3682
12099,-48,863,3636,2057,1594,-3860
12109,17,792,3575,1606,1577,-3988
12119,92,618,3475,1081,1532,-4064
12129,156,408,3324,566,1480,-4111
12139,285,92,3154,122,1432,-4151
12149,396,-396,2867,-226,1388,-4186
12159,527,-1225,2555,-396,1332,-4179
12169,709,-2240,2156,-487,1225,-4131
12179,870,-3229,1836,-468,1148,-4057
12189,1047,-4160,1979,-289,1126,-3998
12199,1127,-4878,2065,-122,1093,-3931
12209,1163,-5236,1927,-9,1109,-3870
12219,1221,-5265,1856,65,1114,-3765
12229,1273,-5391,1825,177,1069,-3549
12239,1304,-5652,1779,148,1000,-3245
12249,1461,-5992,1784,173,932,-2944
12259,1689,-6202,1743,198,943,-2642
12269,1732,-5944,1602,314,1019,-2372
12279,1563,-5389,1664,405,1035,-2077
12289,1230,-4771,1756,314,942,-1661
12299,904,-4227,1831,73,745,-1167
12309,767,-3915,1746,-324,504,-655
12319,646,-3825,1441,-725,287,-188
12329,429,-3911,1221,-976,64,226
12339,32,-4060,1093,-1066,-185,566
12349,-328,-4136,1069,-1035,-454,849
12359,-615,-4040,1053,-931,-741,1082
12369,-762,-3927,1142,-779,-1007,1292
12379,-775,-3885,1371,-687,-1252,1477
12389,-745,-3781,1634,-669,-1476,1649
12399,-748,-3531,1921,-656,-1670,1782
12409,-813,-3202,2171,-553,-1825,1850
12419,-938,-2959,2361,-383,-1941,1894
12429,-1097,-2892,2557,-213,-2028,1963
12439,-1222,-2926,2629,-175,-2098,2096
12449,-1313,-2880,2448,-96,-2161,2230
12459,-1338,-2882,2545,24,-2207,2347
12469,-1281,-2842,2595,96,-2274,2457
12479,-1139,-2856,2649,242,-2303,2548
12489,-935,-2949,2792,401,-2303,2650
12499,-781,-3021,2902,483,-2306,2755
12509,-618,-2975,3032,497,-2271,2794
12519,-442,-2778,3204,514,-2228,2771
12529,-317,-2492,3378,546,-2170,2746
12539,-223,-2196,3580,606,-2091,2752
12549,-136,-1901,3868,675,-2008,2787
12559,-88,-1671,4103,675,-1950,2814
12569,11,-1466,4210,612,-1881,2799
12579,91,-1322,4192,477,-1772,2793
12589,165,-1147,4165,242,-1660,2763
12599,299,-957,4087,-139,-1485,2700
12609,303,-845,3943,-535,-1360,2624
12619,268,-962,3881,-848,-1294,2545
12629,162,-1434,3690,-1033,-1362,2487
12639,155,-1822,3417,-1078,-1534,2434
12649,166,-2290,3273,-1010,-1572,2227
12659,362,-2103,3205,-824,-1604,1871
12669,699,-1592,3271,-584,-1497,1578
12679,905,-1027,3325,-490,-1398,1443
12689,1020,-583,3194,-497,-1363,1380
12699,1103,-372,3107,-584,-1317,1367
12709,1158,-320,3107,-739,-1275,1349
12719,1235,-259,3149,-933,-1174,1263
12729,1388,-403,3455,-1122,-1064,1201
12739,1421,-691,3807,-1431,-952,1272
12749,1391,-1003,4244,-1672,-890,1281
12759,1346,-1414,4065,-1785,-934,1214
12769,1629,-2476,5132,-1770,-800,1275
12779,1444,-2361,5156,-1889,-746,983
12789,1833,-2104,4932,-1414,-583,514
12799,2016,-1741,4734,-1270,-311,455
12809,1953,-1923,4887,-957,-80,531
12819,1451,-2502,4395,-935,56,540
12829,1189,-2834,4026,-910,101,444
12839,1035,-3066,3717,-681,53,319
12849,1016,-3626,3454,-275,-22,257
12859,967,-3727,3444,189,31,160
12869,906,-3263,3555,650,-31,73
12879,951,-2831,3800,877,-83,31
12889,1000,-2386,3817,835,-136,69
12899,993,-1991,3869,719,-176,172
12909,895,-1805,3821,456,-236,282
12919,728,-1753,3610,123,-289,364
12929,664,-1828,3597,-128,-328,434
12939,630,-1964,3551,-269,-388,490
12949,598,-2122,3546,-276,-407,501
12959,586,-2183,3542,-234,-442,469
12969,571,-2164,3606,-153,-455,413
12979,555,-2118,3667,-102,-429,372
12989,508,-2116,3653,-52,-416,361
12999,412,-2236,3652,55,-411,353
13009,349,-2330,3609,169,-416,345
13019,305,-2336,3516,281,-414,317
13029,296,-2244,3457,352,-414,276
13039,285,-2152,3449,314,-397,255
13049,297,-2085,3445,218,-398,252
13059,298,-2118,3407,105,-399,261
13069,335,-2140,3367,-20,-396,276
13079,364,-2218,3344,-99,-380,279
13089,438,-2313,3585,-169,-333,292
13099,521,-2353,3676,-203,-279,288
13109,572,-2457,3648,-146,-256,272
13119,565,-2595,3582,-99,-220,286
13129,478,-2610,3431,-84,-204,273
13139,384,-2576,3375,-39,-154,238
13149,288,-2503,3367,-23,-121,204
13159,202,-2342,3285,-51,-141,189
13169,188,-2215,3252,-58,-174,191
13179,213,-2156,3211,-75,-206,197
13189,250,-2183,3245,-75,-230,189
13199,261,-2251,3294,-70,-262,179
13209,268,-2321,3286,-22,-294,167
13219,276,-2288,3258,54,-319,160
13229,285,-2218,3234,120,-324,154
13240,285,-2192,3257,198,-325,160
13250,232,-2209,3295,248,-323,174
13260,205,-2268,3358,307,-330,163
13270,192,-2323,3392,402,-360,137
13280,252,-2329,3408,483,-363,121
13290,265,-2276,3439,530,-348,125
13300,256,-2233,3404,541,-330,123
13310,227,-2213,3382,528,-298,127
13320,215,-2222,3372,502,-299,131
13330,229,-2243,3359,514,-309,139
13340,274,-2220,3364,540,-322,161
13350,311,-2156,3357,578,-317,166
13360,356,-2102,3390,630,-312,182
13370,385,-2043,3413,634,-308,209
13380,376,-2021,3407,618,-299,238
13390,364,-2020,3476,586,-278,265
13400,359,-2007,3519,539,-270,282
13410,379,-1965,3520,504,-269,290
13420,393,-1952,3568,489,-256,299
13430,408,-1950,3622,478,-245,306
13441,392,-1990,3682,475,-240,309
13451,388,-2010,3762,484,-250,312
13461,413,-1982,3735,525,-296,315
13471,461,-1990,3737,584,-319,319
13481,432,-1978,3670,647,-326,338
13491,322,-1960,3698,785,-301,357
13501,212,-1930,3724,918,-342,371
13511,76,-1834,3628,1239,-436,365
13521,103,-1958,3583,1675,-538,338
13531,122,-2131,3748,2144,-557,332
13541,163,-2131,3993,2484,-530,360
13551,183,-1776,4142,2665,-517,375
13561,207,-1326,4319,2741,-494,379
13571,268,-942,4529,2600,-447,450
13581,221,-644,4320,2403,-444,570
13591,112,-747,4198,2286,-429,641
13601,74,-1014,4073,2249,-449,683
13611,126,-1233,3927,2327,-471,716
13621,211,-1239,3855,2503,-491,719
13631,351,-1066,3886,2599,-466,735
13642,431,-722,3823,2551,-412,749
13652,454,-511,3929,2435,-427,812
13662,463,-367,3862,2232,-421,879
13672,453,-346,3726,2098,-479,899
13682,556,-394,3684,2005,-475,860
13692,741,-315,3635,1887,-497,863
13702,957,-165,3733,1773,-460,884
13712,1103,-31,3789,1633,-406,896
13722,1127,-17,3837,1493,-324,895
13732,1058,-80,3821,1379,-264,901
13742,942,-98,3719,1303,-233,874
13752,905,-30,3741,1204,-203,829
13762,911,107,3804,1027,-212,810
13772,910,185,3840,784,-223,814
13782,916,178,3858,523,-234,798
13792,918,157,3798,283,-234,789
13802,917,190,3786,109,-235,755
13812,947,183,3778,-5,-246,724
13822,957,154,3792,-66,-248,686
13832,1040,138,3836,-111,-233,630
13843,1095,187,3897,-177,-208,594
13853,1145,275,3990,-263,-180,555
13863,1183,383,4093,-383,-148,514
13873,1198,407,4252,-500,-121,470
13883,1173,304,4382,-571,-89,424
13893,1208,206,4492,-613,-56,363
13903,1303,141,4618,-586,-4,310
13913,1359,52,4851,-502,56,310
13923,1400,169,5018,-413,127,298
13933,1420,613,5250,-267,243,267
13943,1430,1039,5510,-94,362,179
13953,1461,1262,5489,-51,490,92
13963,1502,1311,5398,-90,632,45
13973,1396,1172,5072,-149,763,-16
13983,1185,834,4475,-124,947,-110
13993,868,556,4067,-116,1055,-264
14003,926,848,3475,-64,1075,-510
14013,885,1047,3447,57,1127,-620
14023,782,1214,3543,-36,1232,-752
14033,625,1255,3725,-190,1321,-892
14044,445,1041,3943,-387,1355,-967
14054,264,612,4057,-572,1287,-1013
14064,221,154,4067,-648,1207,-1109
14074,295,-107,3790,-583,1129,-1215
14084,405,-79,3467,-390,1120,-1285
14094,432,-112,3197,-201,1176,-1336
14104,373,-233,3117,-189,1201,-1334
14114,240,-261,3043,-175,1192,-1306
14124,224,-338,3158,-101,1145,-1264
14134,282,-427,3275,-124,1112,-1169
14144,285,-515,3365,-271,1083,-1108
14154,311,-747,3346,-516,1065,-1123
14164,320,-1069,3207,-804,1048,-1118
14174,224,-1316,3164,-997,1044,-1066
14184,163,-1447,3137,-1067,1056,-1031
14194,102,-1521,3072,-1022,1044,-1016
14204,24,-1588,3178,-976,1021,-1012
14215,10,-1537,3355,-911,926,-1005
14225,77,-1363,3468,-796,878,-999
14235,149,-1161,3734,-651,863,-983
14245,202,-982,3612,-517,910,-1020
14255,204,-1092,3740,-297,936,-1079
14265,179,-1185,3828,-179,976,-1074
14275,100,-1137,3849,56,1012,-1098
14285,-74,-950,4043,326,1033,-1141
14295,-309,-633,4205,495,1021,-1203
14305,-431,-452,4215,448,1025,-1286
14315,-541,-504,4209,260,1041,-1320
14325,-721,-592,4326,123,1048,-1332
14335,-909,-712,4589,95,1047,-1352
14345,-1012,-712,4753,164,1045,-1375
14355,-1133,-718,4832,290,1008,-1405
14365,-1155,-803,4901,434,979,-1453
14375,-1298,-840,4801,537,917,-1452
14386,-1439,-805,4578,639,808,-1414
14396,-1430,-783,4285,600,683,-1357
14406,-1357,-735,4054,557,593,-1264
14416,-1311,-629,3849,498,515,-1153
14426,-1262,-587,3721,468,438,-1047
14436,-1140,-689,3683,356,357,-927
14446,-1025,-752,3555,245,295,-800
14456,-945,-820,3526,196,251,-676
14466,-920,-738,3396,153,184,-558
14476,-879,-712,3327,135,138,-457
14486,-868,-714,3185,69,81,-347
14496,-858,-815,2997,-10,23,-267
14506,-846,-928,2980,-135,3,-181
14516,-783,-907,3109,-196,3,-105
14526,-880,-893,3080,-235,-74,-35
14536,-880,-905,3342,-275,-113,8
14547,-846,-891,3513,-359,-185,67
14557,-801,-907,3573,-439,-237,85
14567,-793,-987,3885,-524,-237,103
14577,-824,-1119,3759,-579,-282,86
14587,-846,-1118,3731,-581,-297,64
14597,-850,-914,3671,-511,-312,56
14607,-817,-747,3783,-458,-314,47
14617,-786,-626,3885,-510,-302,48
14627,-786,-601,3898,-617,-259,29
14637,-793,-678,3908,-761,-214,6
14647,-848,-718,3890,-886,-158,-39
14657,-856,-743,4024,-990,-110,-47
14667,-837,-735,4062,-1128,-74,-54
14677,-849,-723,4087,-1268,-46,-65
14687,-893,-850,3958,-1312,-36,-77
14697,-914,-1069,3915,-1261,-19,-90
14707,-883,-1225,3903,-1146,6,-87
14718,-913,-1299,3759,-1012,21,-83
14728,-943,-1322,3725,-818,28,-86
14738,-923,-1291,3777,-662,42,-61
14748,-925,-1165,3772,-573,48,-33
14758,-933,-1076,3873,-555,56,-33
14768,-916,-955,3793,-576,70,-31
14778,-937,-1014,3787,-560,76,-35
14788,-1025,-1092,3786,-607,98,-45
14798,-1000,-1101,3662,-589,122,-76
14808,-840,-1107,3944,-465,169,-85
14818,-644,-857,3824,-383,145,-130
14828,-538,-792,3909,-387,149,-172
14838,-482,-654,3831,-475,125,-230
14848,-482,-724,3649,-587,126,-260
14858,-535,-819,3536,-693,172,-304
14868,-350,-1060,3426,-674,183,-318
14878,-220,-1492,3609,-569,197,-254
14889,-314,-1938,3869,-523,209,-276
14899,-412,-2056,3830,-270,140,-285
14909,-589,-2197,4093,6,91,-316
14919,-591,-1908,4277,60,34,-234
14929,-604,-1751,4241,-12,12,-158
14939,-562,-1498,3967,-260,-2,-111
14949,-552,-1409,3993,-309,-10,-67
14959,-385,-908,4053,-278,-60,78
14969,-728,-765,4094,-483,-68,41
14979,-623,-1065,3843,-278,-98,64
14989,-468,-1530,3830,-82,-124,81
14999,-499,-1764,3810,-54,-157,73
15009,-433,-1755,3573,21,-223,53
15019,-631,-1987,3409,89,-305,147
15029,-697,-2122,3426,169,-382,257
15039,-705,-2246,3813,276,-425,411
15050,-752,-2173,3860,334,-527,554
15060,-621,-1910,4189,444,-578,605
15070,-828,-1772,4696,531,-641,713
15080,-582,-1512,4554,704,-743,654
15090,-581,-1402,4373,422,-691,697
15100,-767,-1777,4000,292,-699,748
15110,-801,-2186,3904,261,-659,809
15120,-848,-2138,3679,315,-705,831
15130,-810,-2079,3528,560,-759,844
15140,-839,-2207,3375,729,-858,955
15150,-930,-2504,3298,977,-918,1072
15160,-783,-2590,3211,1389,-940,1073
15170,-658,-2525,3187,1498,-863,969
15180,-631,-2094,3079,1216,-783,798
15190,-710,-1516,2436,981,-706,684
15200,-490,-1409,2676,1066,-597,758
15210,-544,252,2108,-81,-777,875
15220,-408,1017,2649,-645,-513,640
15230,-35,202,3812,-1457,-413,824
15240,-249,-445,3914,-2345,-342,1140
15250,-423,-757,3730,-2373,-346,948
15260,-53,-585,4237,-2433,-278,548
15270,143,444,4001,-2961,-143,298
15280,-62,995,3477,-3543,1,264
15290,-276,374,3500,-4062,57,356
15300,-433,-872,3708,-4570,7,461
15310,-393,-1128,3371,-4930,-32,257
15320,-41,-432,2902,-5168,-28,-60
15330,118,-89,2402,-5821,10,-88
15340,-111,-347,2126,-6887,112,93
15350,-535,-947,1433,-7740,87,100
15360,-485,-1862,1313,-8144,42,-79
15370,-206,-2410,974,-8529,-37,-127
15380,-67,-2782,781,-8571,-31,-138
15391,22,-2946,493,-8535,-22,-237
15401,-199,-3319,140,-8081,5,-299
15411,-344,-3692,-92,-7522,-91,-179
15421,-525,-3959,150,-6770,-137,-79
15431,-493,-4355,-54,-5731,-303,-86
15441,-487,-4650,55,-4601,-375,-169
15451,-343,-4858,102,-3821,-403,-276
15461,-417,-5097,-304,-3010,-436,-451
15471,-492,-5567,-37,-2428,-167,-448
15481,-1012,-5752,42,-2249,-116,-136
15491,-1620,-5372,-434,-2192,-213,30
15501,-1816,-4895,-871,-2076,-379,-6
15511,-1681,-5077,-980,-1836,-550,-70
15521,-1438,-5798,-629,-1820,-641,-63
15531,-1376,-5929,-960,-2027,-715,28
15541,-1661,-5551,-1571,-2116,-680,199
15551,-1904,-5470,-1866,-1813,-763,142
15561,-1924,-5698,-1728,-1087,-868,-48
15571,-1839,-5711,-1274,-275,-975,-76
15581,-1675,-5355,-662,321,-1034,-6
15591,-1446,-5024,-726,851,-1209,13
15601,-1306,-4678,-650,1844,-1414,-236
15611,-513,-5120,-1091,2493,-1687,-474
15621,16,-4359,-1301,3025,-1567,-481
15631,448,-2528,-518,2172,-1478,-422
15641,705,-1363,-1441,1930,-1078,-365
15651,691,-2106,1050,1398,-327,-209
15661,-676,-2741,560,160,-207,-182
15671,-1207,-3260,434,130,-426,-318
15681,-1018,-4044,618,686,-843,-233
15691,-403,-4408,811,1148,-984,-118
15701,266,-4007,629,1360,-892,-97
15711,677,-3205,517,1289,-625,-122
15722,734,-2684,458,976,-318,-144
15732,537,-2873,214,462,-119,-40
15742,151,-3495,-16,-77,-24,174
15752,-217,-4064,-358,-358,-19,225
15762,-319,-4358,-464,-352,-36,203
15772,-265,-4307,-505,-268,-46,189
15782,-147,-4040,-405,-281,-26,203
15792,-93,-3821,-483,-317,13,225
15802,-163,-3725,-405,-355,108,241
15812,-306,-3649,-286,-402,173,232
15822,-425,-3553,-251,-400,193,187
15832,-437,-3464,-214,-374,190,140
15842,-395,-3442,-191,-391,211,117
15852,-388,-3451,-202,-428,238,86
15862,-379,-3474,-155,-457,271,44
15872,-389,-3503,-218,-492,261,-3
15882,-384,-3474,-280,-487,259,-45
15892,-388,-3442,-258,-504,248,-77
15902,-367,-3394,-248,-559,243,-115
15912,-352,-3399,-258,-668,241,-157
15922,-353,-3426,-279,-788,245,-191
15932,-378,-3473,-251,-900,249,-241
15942,-382,-3670,-295,-948,219,-309
15952,-379,-4042,-382,-936,178,-357
15962,-330,-4623,-551,-861,114,-387
15972,-235,-5271,-557,-743,76,-422
15982,-193,-5595,-455,-671,40,-454
15992,-209,-5359,-302,-484,-9,-477
16002,-225,-4932,-255,-175,-64,-483
16012,-262,-4574,-223,37,-71,-437
16022,-364,-4300,-277,70,-68,-378
16032,-444,-4069,-411,78,-87,-347
16042,-448,-3971,-464,79,-94,-333
16053,-465,-4019,-585,78,-100,-321
16063,-523,-4153,-599,100,-95,-299
16073,-598,-4194,-610,162,-97,-292
16083,-646,-4145,-608,279,-104,-298
16093,-632,-4011,-644,351,-127,-294
16103,-564,-3941,-670,350,-149,-278
16113,-444,-3978,-633,316,-175,-242
16123,-374,-4094,-613,290,-167,-206
16133,-340,-4240,-532,325,-142,-172
16143,-349,-4290,-480,358,-131,-143
16153,-369,-4233,-452,378,-122,-108
16163,-334,-4122,-484,376,-122,-87
16173,-281,-4024,-483,357,-124,-67
16183,-235,-3997,-500,313,-132,-46
16193,-207,-3992,-477,264,-129,-36
16203,-176,-3964,-377,230,-132,-26
16213,-143,-3929,-350,204,-140,-21
16223,-93,-3874,-292,171,-139,-16
16233,-74,-3833,-327,126,-141,-7
16243,-67,-3835,-310,71,-129,8
16254,-82,-3871,-328,13,-125,8
16264,-72,-3902,-295,-18,-119,1
16274,-64,-3963,-284,-30,-130,-10
16284,-26,-3970,-313,-25,-133,-13
16294,30,-3991,-321,-6,-128,-21
16304,51,-3981,-336,7,-115,-24
16314,48,-3971,-314,21,-98,-32
16324,57,-3972,-274,42,-81,-46
16334,46,-3922,-292,56,-63,-54
16344,16,-3888,-311,53,-55,-61
16354,0,-3911,-341,39,-55,-65
16364,12,-3929,-327,14,-46,-61
16374,-2,-3976,-294,-3,-41,-65
16384,-8,-3997,-287,-15,-27,-65
16394,-24,-4021,-311,-7,-21,-65
16404,-57,-4053,-301,-5,-6,-63
16414,-77,-4072,-286,-1,-3,-50
16424,-91,-4043,-264,4,2,-43
16434,-107,-4024,-212,5,7,-34
16444,-127,-4025,-242,13,5,-25
16455,-135,-4038,-250,31,11,-17
16465,-140,-4023,-228,45,9,-23
16475,-148,-4035,-252,52,7,-10
16485,-166,-3999,-255,65,6,-12
16495,-141,-4003,-272,92,1,-6
16505,-164,-4034,-280,128,-7,-10
16515,-146,-4032,-275,141,-9,-5
16525,-149,-3977,-236,152,-12,-3
16535,-146,-3904,-193,152,-7,-6
16545,-138,-3815,-167,133,-7,10
16555,-147,-3727,-149,77,-10,15
16565,-148,-3720,-188,9,-13,14
16575,-176,-3792,-309,-28,-24,-12
16585,-192,-3930,-476,-33,-30,-26
16595,-189,-4077,-485,-25,-10,-51
16605,-193,-4208,-609,55,-4,-98
16615,-264,-4250,-588,145,42,-185
16625,-259,-4152,-519,326,79,-302
16635,-210,-3902,-258,548,78,-386
16645,-132,-3690,-258,779,-24,-453
16656,35,-3811,-387,1070,-118,-489
16666,133,-3968,-279,1011,-139,-468
16676,133,-3852,-522,842,-161,-456
16686,-10,-3869,-835,951,-183,-452
16696,-210,-4171,-774,1215,-232,-442
16706,-378,-4194,-495,1398,-365,-472
16716,-234,-3978,-501,1661,-554,-575
16726,197,-3876,-153,1846,-638,-553
16736,446,-3788,85,1853,-628,-440
16746,634,-3932,616,1693,-552,-208
16756,47,-3646,-144,1001,-584,-170
16766,149,-3848,105,1405,-560,-374
16776,62,-4665,820,1745,-531,-170
16786,-151,-4857,989,1697,-590,-31
16796,-62,-4645,899,1823,-698,-67
16806,182,-4207,855,2167,-762,-90
16816,363,-3913,1044,2644,-748,-38
16826,349,-3866,1302,2847,-708,77
16836,303,-3919,1519,2682,-672,169
16846,181,-3945,1545,2493,-657,184
16857,131,-3977,1487,2456,-698,199
16867,138,-3921,1620,2512,-701,235
16877,140,-3700,1537,2490,-714,260
16887,151,-3495,1287,2457,-709,236
16897,210,-3580,1203,2426,-712,215
16907,265,-3668,1160,2373,-736,227
16917,321,-3565,1227,2377,-759,194
16927,462,-3322,1461,2539,-759,131
16937,528,-3105,1979,2690,-719,116
16947,545,-2943,2394,2621,-686,108
16957,524,-2738,2668,2457,-660,114
16967,527,-2655,2754,2226,-690,105
16977,561,-2714,2610,1968,-717,107
16987,522,-2769,2395,1749,-732,114
16997,465,-2782,2089,1710,-776,95
17007,503,-2871,2181,1910,-840,67
17017,673,-2835,2650,2005,-729,-60
17027,802,-3079,3345,2007,-624,0
17037,620,-2970,3387,2219,-554,-77
17047,792,-2777,3624,2399,-543,-262
17058,858,-2240,3395,2267,-482,-252
17068,756,-1918,2928,2112,-406,-236
17078,596,-2175,2373,1864,-457,-186
17088,432,-2420,2168,1400,-503,-143
17098,720,-2666,2747,1103,-469,-131
17108,948,-2981,3464,1004,-287,19
17118,794,-3061,4171,876,-105,73
17128,644,-2380,4346,529,-69,26
17138,609,-1660,4202,-17,-96,69
17148,698,-1513,4026,-702,-12,255
17158,717,-1551,3657,-1194,88,350
17168,545,-2164,2974,-1268,96,408
17178,224,-2461,2969,-1380,122,405
17188,186,-2329,2804,-1124,5,219
17198,283,-2115,2878,-763,-23,130
17208,383,-1998,3214,-621,-160,11
17218,832,-1758,3228,-712,-216,46
17228,1118,-2011,2832,-925,-177,62
17238,1116,-2790,2384,-1085,15,140
17248,763,-3510,2244,-1219,212,132
17259,364,-3934,2185,-1070,246,67
17269,60,-3935,2400,-835,134,39
17279,22,-3557,2565,-771,-61,-17
17289,113,-2994,2792,-705,-219,-62
17299,322,-2907,2823,-550,-301,-16
17309,368,-3112,2614,-444,-221,110
17319,282,-3632,1990,-121,-258,188
17329,147,-3713,1469,-20,-267,165
17339,356,-3494,887,358,-386,90
17349,519,-3539,1079,712,-412,122
17359,420,-3452,1427,764,-448,149
17369,294,-3048,1638,1045,-552,95
17379,321,-2356,2296,1371,-609,-16
17389,633,-1236,2694,1235,-686,-156
17399,1257,-683,3628,922,-557,-128
17409,1464,-1717,4229,118,-439,238
17419,682,-3176,3809,-513,-323,496
17429,348,-4007,3461,-353,-283,269
17439,371,-4355,3341,160,-127,65
17449,235,-4101,3187,571,8,27
17460,108,-3328,3028,885,55,-60
17470,213,-2513,3285,1265,7,-163
17480,464,-1692,3597,1459,-63,-201
17490,836,-1182,3714,1679,-100,-234
17500,1065,-1256,3525,1871,-125,-307
17510,1192,-1889,3241,2022,-135,-320
17520,1151,-2600,2906,2337,-150,-270
17530,1006,-3001,2575,2815,-155,-304
17540,1006,-2912,2720,3144,-86,-431
17550,897,-2264,2851,3295,-17,-445
17560,736,-1663,3099,3317,27,-483
17570,551,-1428,3642,3063,-82,-469
17580,653,-1189,3927,2619,-159,-478
17590,1093,-1104,4649,2333,-130,-495
17600,1270,-1113,4273,2008,-116,-489
17610,1150,-944,4052,1883,9,-536
17620,1005,-1066,3737,1610,-35,-462
17630,772,-1645,3512,1398,-17,-334
17640,728,-2038,3437,1218,-97,-255
17650,781,-1992,3309,1190,-139,-221
17661,849,-1757,3384,1274,-144,-178
17671,908,-1407,3735,1316,-134,-114
17681,910,-1120,3901,1256,-169,-43
17691,913,-1017,3954,1152,-189,-14
17701,920,-1046,3932,931,-228,63
17711,855,-1046,3714,848,-209,140
17721,816,-875,3648,779,-236,151
17731,864,-757,3609,737,-262,177
17741,908,-716,3716,619,-297,222
17751,916,-743,3853,494,-298,231
17761,939,-748,4031,446,-285,223
17771,990,-558,4102,408,-271,195
17781,1026,-377,4142,359,-241,175
17791,1019,-387,4129,308,-188,159
17801,1000,-357,4114,255,-150,128
17811,1049,-306,4096,204,-147,114
17821,1088,-303,4071,188,-131,107
17831,1145,-308,4051,183,-79,93
17841,1173,-283,4059,141,-43,72
17851,1176,-287,3976,75,-10,70
17862,1144,-379,3992,15,9,61
17872,1126,-564,3958,0,28,43
17882,1118,-632,3974,-16,43,12
17892,1100,-525,3974,-24,60,-17
17902,1072,-535,3886,-29,76,-39
17912,1100,-377,3845,-47,76,-63
17922,1061,-678,3831,-72,84,-70
17932,1122,-850,3867,-20,98,-38
17942,1004,-795,3825,-40,118,-48
17952,949,-827,3830,38,94,-40
17962,938,-821,3814,58,105,-35
17972,935,-792,3729,31,103,-39
17982,971,-869,3664,47,114,-69
17992,719,-986,3754,43,128,21
18002,547,-1055,3769,21,43,112
18012,637,-1009,3796,31,-11,77
18022,915,-1020,3878,69,12,45
18032,1133,-882,4008,104,194,-29
18042,512,-532,4042,-129,16,272
18052,322,-546,3939,-142,-76,582
18063,516,-518,3929,-178,-86,686
18073,626,-475,3749,-280,-114,804
18083,690,-1576,3795,-221,-35,690
18093,834,-1426,3732,-62,-32,509
18103,984,-712,3758,100,-18,493
18113,902,-557,3915,127,63,608
18123,778,-464,4042,45,95,629
18133,1134,-630,4053,-321,45,355
18143,1167,-781,3862,-542,84,380
18153,397,-888,3918,-370,18,552
18163,416,-318,3915,-274,-148,579
18173,193,218,3965,-420,-128,507
18183,-1238,128,3839,-670,-416,539
18193,-349,-341,3690,-887,-789,137
18203,950,-927,3612,-780,-715,-23
18213,2234,-1960,3593,-598,-221,-133
18223,1995,-1709,3787,-195,-155,-378
18233,2243,-863,4078,36,-93,-628
18243,1194,-269,4110,-74,-57,-476
18253,1074,-979,4073,-216,-33,-429
18263,1603,-1034,3857,-324,-135,-358
18273,1504,-1049,3728,-172,-221,-229
18283,1559,-1101,3634,32,-322,-249
18293,2126,-1414,3661,208,-339,-576
18303,2352,-1769,3529,585,-257,-943
18314,1504,-1703,3779,1342,-331,-926
18324,1830,-988,4630,1967,-594,-399
18334,848,-207,4887,1445,-710,355
18344,5201,3840,3503,-2598,87,-2130
18354,2343,3590,2973,-2222,1962,1762
18364,-825,-494,4850,-3669,2275,1697
18374,-3013,-3247,2746,-3567,907,58
18384,-2151,-3731,2419,-1923,9,-620
18394,198,-2229,3228,-823,-643,-510
18404,1901,-605,3767,-737,-487,-416
18414,2603,-52,3721,-1308,52,-491
18424,2105,-489,3727,-1959,527,-404
18434,934,-1252,3612,-2351,588,-203
18444,204,-1633,3460,-2453,444,-212
18454,366,-1476,3456,-2492,308,-366
18464,802,-1266,3465,-2546,290,-434
18474,956,-1403,3413,-2731,335,-406
18484,819,-1847,3107,-2856,374,-408
18494,626,-2371,2650,-2783,367,-453
18504,426,-2861,2427,-2469,376,-512
18514,268,-3039,2430,-2284,379,-514
18524,147,-2948,2631,-2169,406,-530
18534,114,-2741,3041,-2342,410,-515
18544,189,-2401,3249,-2740,378,-473
18554,254,-2048,3242,-3138,409,-430
18565,253,-2094,3039,-3414,412,-359
18575,137,-2435,2840,-3607,374,-336
18585,222,-2892,2519,-3749,362,-363
18595,304,-3271,2344,-3647,310,-341
18605,367,-3355,2274,-3516,272,-327
18615,375,-3419,2361,-3417,215,-343
18625,322,-3499,2364,-3407,131,-358
18635,105,-3725,2284,-3279,127,-520
18645,165,-3673,2148,-3113,70,-458
18655,283,-3659,2005,-2970,85,-442
18665,324,-3781,1932,-2786,96,-351
18675,682,-3859,1994,-2652,87,-442
18685,981,-3620,2430,-2754,101,-423
18695,772,-3186,1555,-2752,28,-537
18705,1140,-3450,1744,-2961,95,-506
18715,1124,-4128,1647,-2960,123,-489
18725,1196,-4468,1519,-2965,113,-480
18735,1390,-3997,1319,-3194,60,-485
18745,1277,-3628,834,-3466,-15,-471
18755,1386,-3555,73,-3624,-17,-418
18765,1661,-5196,466,-3097,88,-320
18775,1494,-5614,1662,-2641,-2,-237
18785,1254,-3747,1583,-2386,-131,-454
18795,1360,-3250,428,-2360,-182,-371
18805,1567,-3981,-26,-2617,-237,-302
18816,1440,-5094,-1024,-2527,-185,-337
18826,1699,-4865,-1036,-2635,-250,-426
18836,1580,-4776,-359,-2228,-168,-423
18846,1587,-4605,-426,-2372,-165,-516
18856,1583,-5441,-378,-1915,-207,-425
18866,1639,-5546,-158,-1582,-221,-400
18876,1637,-4985,-244,-1018,-204,-478
18886,1596,-4326,-13,-559,-246,-531
18896,1615,-3832,-26,-458,-318,-544
18906,1516,-3670,-312,-532,-357,-569
18916,1456,-4085,-694,-570,-407,-498
18926,1397,-4812,-1030,-610,-471,-394
18936,1258,-5288,-1082,-626,-494,-408
18946,1123,-5309,-989,-552,-521,-392
18956,944,-4864,-717,-467,-513,-302
18966,753,-4247,-852,-513,-565,-243
18976,730,-3708,-812,-825,-588,-185
18986,839,-3187,-1049,-1251,-536,-185
18996,627,-3369,-1532,-1535,-450,-11
19006,82,-4571,-2072,-1570,-486,121
19016,-232,-5664,-2498,-1486,-686,129
19026,-334,-5551,-2338,-1028,-755,96
19036,-377,-4646,-1805,-339,-762,42
19046,-457,-4052,-1864,93,-829,96
19056,-112,-3669,-392,-201,-833,216
19067,-147,-2150,-1453,-389,-809,61
19077,-381,-3482,-1060,470,-677,233
19087,-862,-4337,-1161,297,-808,516
19097,-519,-4439,-1496,412,-905,449
19107,44,-4587,-1706,138,-930,440
19117,256,-4838,-2054,-8,-912,494
19127,381,-4905,-2216,-90,-918,515
19137,654,-4611,-2359,-126,-938,492
19147,919,-4133,-2376,-188,-957,511
19157,1180,-3860,-2193,-263,-993,525
19167,1381,-3949,-2022,-381,-1067,528
19177,1568,-4094,-1821,-377,-1092,485
19187,1666,-4284,-1399,-275,-1016,459
19197,1683,-4180,-1225,-213,-954,422
19207,1794,-4268,-1303,-45,-937,352
19217,1891,-4524,-1327,120,-904,344
19227,1885,-4507,-1605,341,-881,298
19237,1928,-4223,-1807,567,-852,236
19247,1872,-3962,-2045,749,-862,178
19257,1842,-3871,-1963,748,-865,148
19268,1774,-3845,-1832,685,-886,115
19278,1694,-4083,-1529,637,-875,96
19288,1585,-4331,-1336,625,-877,100
19298,1475,-4328,-1232,639,-887,96
19308,1412,-4190,-1158,639,-875,61
19318,1399,-4028,-1238,596,-872,12
19328,1434,-3953,-1446,603,-859,-52
19338,1414,-3797,-1688,692,-839,-143
19348,1493,-3936,-1607,878,-758,-172
19358,1536,-4174,-2000,953,-744,-97
19368,1462,-3892,-1469,764,-701,-53
19378,1279,-3640,-1549,892,-642,-167
19388,1259,-3746,-1639,1273,-601,-219
19398,1274,-3628,-1089,1373,-660,-121
19408,1419,-3140,-790,1253,-653,-216
19418,1387,-2892,-1051,1023,-668,-136
19428,1471,-2891,-530,618,-682,-95
19438,1694,-3010,-766,569,-625,-163
19448,1381,-3482,-1112,784,-600,19
19458,1187,-3391,-916,584,-655,73
19469,1121,-3085,-1132,593,-654,-16
19479,1023,-3201,-1058,709,-641,53
19489,995,-3285,-998,786,-669,92
19499,1058,-3260,-846,933,-620,59
19509,1039,-3126,-808,1022,-598,71
19519,1016,-2980,-679,1008,-593,118
19529,1050,-2858,-566,926,-593,158
19539,1018,-2864,-533,836,-594,194
19549,982,-2854,-507,723,-583,239
19559,954,-2738,-566,625,-568,267
19569,934,-2679,-682,585,-543,293
19579,914,-2721,-692,597,-543,321
19589,897,-2787,-542,581,-538,346
19599,885,-2843,-374,559,-518,342
19609,862,-2922,-226,581,-509,350
19619,832,-2949,-196,636,-513,367
19629,758,-2939,-111,647,-511,367
19639,691,-2801,-89,541,-513,369
19649,631,-2639,-150,395,-522,367
19659,549,-2668,-236,238,-570,374
19670,536,-2787,-230,84,-607,392
19680,592,-2981,-231,-78,-666,411
19690,625,-3085,-149,-177,-669,422
19700,600,-3149,-220,-244,-703,369
19710,563,-3185,-144,-290,-709,325
19720,500,-3078,-123,-263,-731,282
19730,489,-3027,-108,-156,-761,206
19740,555,-3170,-80,-35,-776,142
19750,607,-3288,-13,84,-784,87
19760,662,-3375,31,217,-798,35
19770,698,-3414,32,276,-811,-2
19780,766,-3346,17,244,-843,-31
19790,780,-3324,-37,158,-843,-38
19800,739,-3472,-83,61,-861,-23
19810,713,-3564,-131,-48,-881,-21
19820,681,-3445,-171,-128,-900,-56
19830,651,-3306,-260,-128,-916,-93
19840,638,-3189,-285,-103,-918,-108
19850,638,-3079,-332,-122,-922,-167
19860,624,-3101,-408,-110,-926,-231
19871,614,-3187,-248,-118,-927,-250
19881,598,-3293,-158,-180,-946,-273
19891,661,-3463,-103,-262,-958,-281
19901,698,-3707,-171,-362,-970,-262
19911,725,-3934,-318,-436,-975,-250
19921,739,-4187,-406,-489,-990,-250
19931,697,-4314,-425,-498,-1015,-227
19941,645,-4202,-368,-505,-1041,-200
19951,615,-3889,-504,-526,-1067,-174
19961,546,-3656,-593,-547,-1084,-155
19971,484,-3642,-579,-554,-1119,-122
19981,445,-3704,-480,-595,-1160,-101
19991,437,-3891,-432,-575,-1202,-97
20001,447,-4126,-306,-444,-1219,-73
20011,382,-4191,-241,-307,-1228,-28
20021,290,-4051,-408,-143,-1253,11
20031,217,-3913,-427,-62,-1270,48
20041,198,-3783,-486,-115,-1318,84
20051,160,-3718,-570,-157,-1355,116
20061,150,-3752,-572,-231,-1388,135
20072,174,-3848,-381,-350,-1411,162
20082,162,-4003,-359,-440,-1427,152
20092,147,-4265,-389,-437,-1412,131
20102,54,-4484,-496,-412,-1410,104
20112,41,-4550,-623,-383,-1416,62
20122,126,-4441,-705,-347,-1435,46
20132,270,-4182,-784,-329,-1435,43
20142,361,-4004,-896,-268,-1401,42
20152,344,-4002,-990,-207,-1359,36
20162,256,-4140,-1066,-167,-1314,9
20172,152,-4305,-969,-125,-1274,-25
20182,49,-4441,-990,-88,-1238,-34
20192,-71,-4411,-1044,-59,-1197,-29
20202,-168,-4239,-1051,-88,-1189,-25
20212,-159,-4063,-1001,-146,-1190,-21
20222,-121,-3957,-857,-201,-1196,-30
20232,-56,-3938,-728,-219,-1199,-39
20242,9,-3940,-775,-164,-1212,-41
20252,10,-3898,-809,-102,-1202,-53
20262,-17,-3769,-901,-83,-1207,-59
20273,-43,-3611,-939,-143,-1193,-70
20283,-68,-3507,-955,-242,-1171,-96
20293,-76,-3519,-988,-332,-1155,-131
20303,-67,-3702,-1053,-394,-1148,-168
20313,-68,-4057,-1033,-376,-1125,-196
20323,-101,-4317,-1048,-285,-1105,-213
20333,-106,-4311,-1016,-143,-1084,-225
20343,-118,-4156,-1021,-19,-1075,-238
20353,-82,-3986,-972,48,-1047,-237
20363,-45,-3893,-999,45,-1021,-243
20373,-10,-3850,-1019,7,-982,-258
20383,62,-3780,-1051,-47,-970,-275
20393,169,-3688,-1105,-48,-954,-315
20403,56,-3679,-1027,-22,-822,-312
20413,-156,-3748,-972,-90,-740,-311
20423,-207,-3739,-1022,-187,-770,-343
20433,-62,-3782,-1021,-252,-764,-362
20443,26,-3920,-1053,-248,-695,-374
20453,2,-4172,-1117,-136,-633,-388
20463,-37,-4395,-1073,76,-600,-399
20474,-99,-4425,-1025,244,-557,-418
20484,-77,-4217,-939,356,-506,-425
20494,-60,-3937,-864,367,-469,-390
20504,-16,-3824,-808,324,-422,-377
20514,36,-3817,-826,241,-358,-350
20524,57,-3909,-835,242,-305,-336
20534,53,-4005,-700,212,-235,-301
20544,31,-4061,-658,241,-188,-330
20554,28,-4153,-667,388,-152,-334
20564,-45,-4167,-691,533,-90,-316
20574,-195,-4155,-740,714,-40,-325
20584,-339,-4102,-725,867,-29,-354
20594,-330,-4013,-633,918,-36,-352
20604,-343,-3900,-628,898,-56,-337
20614,-297,-3802,-814,832,-89,-308
20624,-256,-3799,-873,797,-105,-266
20634,-265,-3793,-814,729,-133,-241
20644,-270,-3808,-791,717,-146,-259
20654,-302,-3877,-727,719,-160,-258
20664,-333,-3970,-688,726,-168,-242
20675,-355,-4066,-755,774,-190,-227
20685,-310,-4072,-759,787,-190,-202
20695,-345,-3950,-1006,769,-197,-166
20705,-349,-3726,-1113,711,-197,-149
20715,-398,-3557,-1169,616,-240,-169
20725,-245,-3585,-1112,544,-284,-162
20735,-214,-3638,-1081,493,-318,-133
20745,-195,-3712,-1037,458,-374,-152
20755,-102,-3731,-952,413,-405,-178
20765,-71,-3730,-934,327,-408,-169
20775,-71,-3793,-963,270,-408,-185
20785,-33,-3951,-936,208,-402,-194
20795,32,-4100,-964,160,-400,-186
20805,31,-4223,-960,118,-378,-210
20815,134,-4328,-892,97,-377,-205
20825,279,-4372,-853,79,-390,-187
20835,437,-4259,-837,107,-383,-181
20845,550,-4014,-664,120,-346,-177
20855,528,-3800,-506,108,-287,-184
20865,492,-3701,-365,70,-266,-181
20876,514,-3671,-254,-80,-227,-187
20886,524,-3746,-324,-113,-196,-188
20896,491,-3965,-340,-85,-188,-174
20906,526,-4083,-375,-79,-186,-164
20916,539,-4125,-443,29,-195,-167
20926,613,-4029,-430,34,-188,-176
20936,659,-3773,-370,-118,-160,-140
20946,666,-3668,-172,-332,-122,-99
20956,624,-3720,25,-679,-85,-70
20966,574,-3807,98,-1067,-71,-48
20976,577,-3917,-124,-1286,-68,-52
20986,700,-4110,-356,-1310,-69,-62
20996,797,-4431,-555,-1180,-73,-60
21006,851,-4740,-685,-938,-73,-61
21016,867,-4766,-643,-708,-78,-66
21026,934,-4421,-714,-633,-75,-58
21036,927,-3974,-710,-687,-48,-33
21046,842,-3738,-727,-811,-35,1
21056,724,-3748,-706,-933,-27,28
21066,598,-3887,-675,-940,-48,42
21077,554,-4078,-703,-795,-82,37
21087,548,-4127,-682,-622,-103,51
21097,597,-3982,-733,-515,-131,57
21107,669,-3852,-824,-477,-132,87
21117,626,-3825,-917,-526,-143,134
21127,530,-3833,-957,-565,-155,154
21137,482,-3853,-888,-561,-179,169
21147,445,-3942,-834,-511,-216,191
21157,431,-4013,-874,-448,-255,205
21167,430,-4023,-888,-387,-286,205
21177,424,-3939,-946,-360,-302,215
21187,364,-3825,-1041,-342,-314,213
21197,338,-3805,-1063,-372,-347,213
21207,346,-3854,-1084,-368,-397,211
21217,368,-3930,-1165,-321,-439,208
21227,373,-3969,-1214,-272,-490,200
21237,384,-3950,-1209,-239,-538,190
21247,392,-3913,-1199,-249,-585,187
21257,400,-3911,-1179,-239,-617,185
21267,407,-3956,-1124,-183,-670,182
21278,411,-3914,-1101,-146,-706,182
21288,367,-3732,-1118,-129,-744,185
21298,350,-3703,-1110,-132,-786,171
21308,348,-3694,-988,-170,-822,165
21318,364,-3628,-929,-219,-845,126
21328,388,-3710,-996,-169,-856,113
21338,335,-3896,-1002,-120,-875,115
21348,294,-3983,-977,-80,-901,92
21358,284,-4018,-1039,0,-914,82
21368,244,-3979,-1002,61,-922,88
21378,223,-3869,-1020,77,-931,95
21388,252,-3730,-1013,98,-923,96
21398,267,-3668,-967,52,-913,96
21408,288,-3631,-888,15,-902,90
21418,276,-3652,-910,-24,-889,96
21428,224,-3690,-896,-41,-879,101
21438,137,-3739,-916,-21,-871,102
21448,125,-3778,-871,12,-849,90
21458,140,-3764,-897,-7,-836,89
21468,153,-3768,-963,-2,-813,91
21479,136,-3782,-1018,-15,-797,96
21489,111,-3842,-981,-37,-778,106
21499,87,-3863,-991,-34,-770,128
21509,109,-3808,-901,-23,-762,154
21519,122,-3730,-792,-32,-752,172
21529,117,-3658,-746,-37,-727,176
21539,124,-3618,-700,-25,-712,175
21549,123,-3619,-725,-24,-688,181
21559,100,-3696,-796,-18,-668,186
21569,109,-3771,-883,-23,-654,190
21579,94,-3800,-934,-5,-641,196
21589,59,-3752,-968,4,-633,200
21599,35,-3673,-954,-32,-628,201
21609,33,-3585,-936,-94,-627,194
21619,1,-3584,-973,-131,-628,197
21629,-50,-3680,-912,-149,-620,193
21639,-64,-3749,-913,-153,-615,181
21649,-72,-3826,-912,-139,-612,172
21659,-85,-3856,-925,-103,-607,165
21669,-95,-3888,-959,-62,-610,160
21680,-117,-3862,-965,-39,-607,159
21690,-121,-3833,-1003,-12,-608,154
21700,-133,-3846,-1031,19,-600,145
21710,-127,-3846,-1030,16,-590,129
21720,-120,-3834,-1037,-20,-572,137
21730,-157,-3855,-1058,-57,-554,129
21740,-185,-3890,-1079,-85,-539,137
21750,-205,-3900,-1094,-102,-529,143
21760,-142,-3890,-1102,-109,-528,136
21770,-96,-3838,-1102,-117,-514,150
21780,-99,-3754,-1111,-134,-503,134
21790,-183,-3682,-1170,-149,-473,117
21800,-301,-3715,-1142,-161,-444,104
21810,-367,-3805,-1126,-200,-427,92
21820,-316,-3880,-1201,-179,-429,67
21830,-232,-3940,-1254,-166,-408,55
21840,-311,-3960,-1259,-176,-365,26
21850,-446,-4083,-1243,-132,-326,3
21860,-539,-4218,-1244,-100,-298,-14
21870,-592,-4183,-1315,-71,-261,-59
21881,-569,-4070,-1387,-55,-230,-97
21891,-497,-3945,-1458,-75,-203,-125
21901,-365,-3887,-1425,-120,-190,-156
21911,-224,-3836,-1422,-182,-185,-184
21921,-113,-3765,-1391,-189,-194,-211
21931,-118,-3658,-1335,-201,-193,-230
21941,-134,-3574,-1238,-201,-204,-260
21951,-139,-3578,-1124,-236,-208,-267
21961,-172,-3618,-1085,-269,-224,-254
21971,-227,-3643,-1091,-291,-226,-264
21981,-333,-3676,-1181,-287,-235,-259
21991,-474,-3775,-1279,-267,-259,-247
22001,-507,-3802,-1341,-243,-312,-240
22011,-501,-3769,-1420,-173,-353,-246
22021,-473,-3707,-1355,-106,-389,-233
22031,-466,-3595,-1306,-63,-407,-245
22041,-451,-3458,-1353,-31,-439,-255
22051,-443,-3394,-1236,-54,-432,-258
22061,-418,-3390,-1295,-117,-450,-267
22071,-437,-3527,-1348,-151,-456,-274
22082,-437,-3724,-1463,-134,-452,-276
22092,-446,-3878,-1507,-86,-441,-272
22102,-424,-3902,-1615,-15,-428,-272
22112,-390,-3908,-1697,75,-404,-271
22122,-332,-3921,-1718,127,-359,-257
22132,-299,-3918,-1766,109,-324,-252
22142,-254,-3871,-1875,93,-281,-237
22152,-213,-3835,-1921,99,-248,-222
22162,-215,-3814,-1868,127,-216,-209
22172,-206,-3689,-1718,122,-182,-210
22182,-128,-3540,-1560,123,-153,-202
22192,-83,-3538,-1453,129,-113,-185
22202,-51,-3650,-1350,161,-78,-179
22212,-27,-3722,-1322,209,-33,-166
22222,-57,-3760,-1407,252,-7,-131
22232,-91,-3793,-1461,232,15,-114
22242,-131,-3804,-1547,217,36,-88
22253,-235,-3815,-1566,195,61,-67
22263,-348,-3870,-1526,217,59,-57
22273,-388,-3884,-1455,238,53,-45
22283,-368,-3837,-1394,250,60,-28
22293,-334,-3702,-1258,219,73,-16
22303,-338,-3562,-1236,164,86,-11
22313,-375,-3585,-1222,124,88,-9
22323,-403,-3600,-1226,79,94,-4
22333,-424,-3623,-1252,73,91,-7
22343,-406,-3688,-1245,89,79,-16
22353,-381,-3748,-1242,118,67,-21
22363,-385,-3837,-1261,180,77,-27
22373,-398,-3899,-1272,240,80,-32
22383,-396,-3876,-1284,295,89,-42
22393,-392,-3805,-1287,325,90,-41
22403,-394,-3701,-1294,321,103,-54
22413,-413,-3694,-1304,304,120,-61
22424,-410,-3730,-1283,246,130,-67
22434,-415,-3829,-1257,216,138,-79
22444,-403,-3821,-1256,155,147,-83
22454,-416,-3773,-1291,106,153,-92
22464,-401,-3753,-1301,76,147,-102
22474,-357,-3766,-1266,20,139,-112
22484,-280,-3761,-1280,8,133,-131
22494,-228,-3851,-1242,10,133,-124
22504,-228,-3870,-1238,-3,120,-130
22514,-220,-3828,-1205,26,108,-140
22524,-224,-3773,-1226,75,101,-147
22534,-209,-3771,-1221,86,95,-154
22544,-192,-3743,-1234,101,80,-170
22554,-203,-3823,-1263,128,61,-191
22564,-225,-3862,-1285,137,57,-213
22574,-222,-3909,-1278,161,46,-230
22585,-206,-3976,-1233,164,33,-230
22595,-180,-4011,-1261,178,17,-229
22605,-141,-3988,-1218,182,13,-232
22615,-136,-3911,-1172,148,14,-233
22625,-143,-3844,-1152,69,20,-238
22635,-158,-3834,-1150,-9,35,-230
22645,-136,-3887,-1170,-97,41,-228
22655,-78,-3957,-1210,-154,44,-224
22665,4,-3989,-1207,-171,52,-224
22675,57,-3948,-1160,-143,50,-210
22685,70,-3824,-1051,-95,56,-192
22695,53,-3637,-974,-64,56,-180
22705,-15,-3545,-900,-41,45,-163
22715,-65,-3605,-844,-20,36,-153
22725,-110,-3726,-841,-8,18,-129
22735,-149,-3837,-931,-3,-10,-121
22745,-147,-3910,-1001,2,-43,-107
22756,-117,-3983,-1027,21,-74,-96
22766,-85,-3972,-993,26,-104,-90
22776,-20,-3860,-955,27,-127,-92
22786,37,-3770,-952,1,-151,-92
22796,72,-3672,-956,-42,-173,-91
22806,81,-3623,-955,-64,-201,-107
22816,51,-3641,-949,-55,-223,-123
22826,-8,-3686,-927,-60,-243,-143
22836,-51,-3799,-949,-63,-275,-157
22846,-52,-3967,-973,-69,-308,-160
22856,6,-4091,-1024,-67,-345,-138
22866,10,-4101,-1054,-53,-375,-117
22876,12,-4073,-1059,22,-407,-95
22886,23,-3979,-982,97,-432,-82
22896,54,-3856,-964,120,-460,-79
22906,104,-3776,-939,110,-476,-68
22916,175,-3773,-961,75,-504,-50
22927,245,-3861,-1003,44,-513,-33
22937,261,-3962,-1059,44,-515,-21
22947,250,-4016,-1074,38,-512,-14
22957,245,-4046,-1064,17,-509,-5
22967,226,-4033,-1042,-23,-512,-11
22977,206,-4006,-968,-59,-511,-12
22987,144,-3954,-939,-53,-524,-22
22997,112,-3872,-871,-40,-540,-26
23007,85,-3839,-817,-4,-563,-33
23017,47,-3849,-826,7,-595,-43
23027,9,-3872,-839,30,-616,-45
23037,-30,-3908,-847,35,-644,-31
23047,-38,-3905,-829,38,-666,-31
23057,-59,-3844,-831,79,-690,-31
23067,-105,-3798,-767,87,-715,-25
23077,-126,-3754,-743,86,-741,-19
23093,-163,-3745,-686,88,-778,-21
23103,-203,-3745,-624,82,-805,-23
23113,-211,-3735,-615,76,-829,-24
23123,-220,-3778,-627,61,-850,-11
23133,-227,-3841,-668,43,-861,-11
23143,-250,-3926,-765,54,-869,-15
23153,-245,-3996,-782,66,-880,-2
23163,-222,-3986,-912,54,-891,3
23173,-189,-3976,-933,63,-902,3
23183,-149,-3952,-916,49,-920,12
23193,-103,-3911,-917,39,-936,3
23203,-66,-3856,-888,29,-943,-5
23213,-46,-3783,-900,21,-956,-26
23223,-14,-3727,-839,0,-967,-38
23233,27,-3659,-810,-53,-983,-47
23243,66,-3632,-847,-98,-994,-54
23253,94,-3651,-915,-150,-1013,-60
23263,96,-3693,-992,-178,-1027,-73
23273,110,-3783,-1056,-174,-1044,-94
23283,111,-3854,-1063,-181,-1057,-106
23293,105,-3906,-1070,-184,-1074,-127
23303,107,-3906,-1079,-192,-1087,-140
23313,128,-3950,-1049,-183,-1094,-163
23323,154,-3936,-1020,-193,-1091,-183
23333,165,-3888,-955,-185,-1087,-205
23343,193,-3879,-935,-168,-1103,-223
23353,224,-3848,-931,-166,-1104,-230
23363,218,-3834,-975,-143,-1098,-247
23373,205,-3840,-997,-144,-1095,-265
23383,173,-3828,-1037,-159,-1088,-280
23393,163,-3864,-1123,-169,-1089,-290
23403,122,-3856,-1143,-181,-1084,-301
23413,116,-3873,-1152,-178,-1083,-309
23423,82,-3890,-1144,-177,-1077,-323
23433,66,-3933,-1136,-162,-1071,-338
23443,37,-3924,-1136,-123,-1068,-339
23453,16,-3853,-1150,-119,-1059,-354
23463,17,-3827,-1184,-192,-1031,-363
23473,-31,-3918,-1194,-193,-1026,-360
23483,-14,-3964,-1244,-186,-1021,-370
23493,-10,-3924,-1280,-166,-1000,-358
23503,-45,-3788,-1287,-165,-981,-351
23513,-66,-3701,-1300,-182,-965,-349
23523,-132,-3738,-1342,-174,-960,-342
23533,-187,-3803,-1371,-155,-944,-337
23543,-218,-3859,-1368,-113,-935,-344
23553,-243,-3896,-1375,-88,-930,-334
23563,-235,-3917,-1334,-72,-914,-321
23573,-250,-3869,-1386,-25,-895,-306
23583,-265,-3751,-1413,-6,-887,-302
23593,-291,-3613,-1432,-16,-877,-301
23603,-324,-3562,-1486,-66,-879,-305
23613,-323,-3626,-1487,-77,-873,-309
23623,-344,-3742,-1468,-93,-879,-300
23633,-363,-3833,-1498,-90,-875,-306
23643,-380,-3886,-1478,-52,-865,-307
23653,-404,-3903,-1474,-38,-856,-292
23663,-404,-3831,-1460,-33,-849,-282
23673,-390,-3795,-1482,-40,-840,-273
23683,-388,-3791,-1515,-44,-833,-267
23693,-376,-3787,-1556,-54,-825,-255
23703,-375,-3812,-1521,-41,-820,-252
23713,-358,-3791,-1541,-22,-819,-244
23723,-341,-3739,-1513,-30,-811,-242
23733,-306,-3714,-1488,-37,-805,-245
23743,-296,-3729,-1461,-55,-796,-232
23753,-276,-3778,-1441,-72,-792,-228
23763,-241,-3825,-1406,-85,-787,-222
23773,-237,-3854,-1398,-66,-779,-216
23783,-206,-3868,-1389,-31,-788,-200
23793,-203,-3821,-1402,3,-780,-199
23803,-213,-3777,-1428,35,-775,-199
23813,-239,-3825,-1454,57,-772,-205
23823,-254,-3866,-1462,87,-764,-213
23833,-302,-3876,-1464,100,-767,-217
23843,-320,-3889,-1446,107,-762,-228
23853,-342,-3910,-1448,109,-767,-224
23863,-311,-3936,-1439,133,-771,-232
23873,-306,-3941,-1389,147,-772,-229
23883,-302,-3920,-1354,147,-770,-228
23893,-318,-3891,-1341,115,-764,-221
23903,-322,-3828,-1305,68,-754,-215
23913,-325,-3782,-1312,33,-746,-208
23923,-295,-3745,-1352,-4,-741,-196
23933,-278,-3740,-1334,-33,-729,-199
23943,-260,-3729,-1383,-11,-719,-199
23953,-273,-3766,-1388,7,-709,-199
23963,-312,-3780,-1417,18,-706,-200
23973,-327,-3777,-1413,29,-703,-204
23983,-325,-3821,-1384,27,-691,-189
23993,-339,-3838,-1384,15,-688,-184
24003,-337,-3841,-1387,45,-689,-178
24013,-358,-3822,-1378,59,-693,-173
24023,-363,-3796,-1356,78,-700,-173
24033,-366,-3738,-1312,67,-699,-179
24043,-367,-3661,-1297,60,-693,-180
24053,-371,-3702,-1333,66,-695,-181
24063,-380,-3737,-1360,62,-697,-181
24073,-375,-3751,-1442,68,-706,-178
24083,-376,-3755,-1407,78,-700,-178
24096,-391,-3723,-1453,82,-705,-173
24106,-393,-3734,-1405,102,-712,-172
24116,-388,-3700,-1360,93,-706,-168
24126,-394,-3697,-1312,94,-705,-171
24136,-399,-3717,-1302,104,-702,-163
24146,-416,-3734,-1307,99,-697,-155
24156,-418,-3731,-1318,94,-694,-152
24166,-419,-3695,-1340,64,-686,-146
24176,-429,-3648,-1356,35,-687,-144
24186,-415,-3672,-1358,23,-687,-143
24196,-418,-3762,-1358,21,-691,-138
24206,-392,-3818,-1355,49,-696,-144
24216,-387,-3827,-1333,87,-696,-143
24226,-382,-3828,-1295,103,-694,-145
24236,-368,-3859,-1282,125,-698,-142
24246,-338,-3866,-1283,135,-700,-139
24256,-304,-3859,-1256,162,-698,-133
24266,-296,-3787,-1253,179,-694,-133
24276,-295,-3752,-1273,197,-691,-129
24286,-300,-3803,-1223,207,-688,-131
24296,-301,-3905,-1245,247,-688,-149
24306,-319,-4002,-1248,304,-666,-153
24316,-374,-4002,-1214,305,-648,-145
24326,-354,-3986,-1179,265,-646,-152
24336,-284,-3955,-1131,193,-628,-144
24346,-210,-3944,-1105,101,-610,-137
24356,-176,-3929,-1116,30,-596,-118
24366,-147,-3957,-1066,-14,-591,-101
24376,-100,-3947,-1045,-35,-596,-88
24386,-65,-3950,-965,-14,-604,-80
24396,-53,-3883,-907,10,-612,-65
24406,-39,-3802,-866,25,-615,-51
24416,-51,-3806,-865,29,-622,-35
24426,-81,-3849,-863,47,-633,-13
24436,-118,-3906,-837,72,-649,6
24446,-143,-3926,-841,110,-658,26
24456,-166,-3938,-838,137,-684,49
24466,-187,-3947,-772,134,-704,65
24476,-157,-3940,-696,127,-728,84
24486,-122,-3956,-673,122,-749,100
24496,-114,-3909,-664,105,-761,127
24506,-132,-3809,-654,63,-769,134
24516,-129,-3818,-585,8,-778,129
24526,-153,-3894,-630,-39,-787,129
24536,-166,-4002,-669,-63,-794,125
24546,-122,-4112,-678,-69,-795,122
24556,-106,-4174,-725,-82,-804,121
24566,-91,-4149,-762,-78,-816,116
24576,-67,-4092,-712,-64,-822,117
24586,-64,-3970,-627,-71,-836,108
24596,-67,-3854,-571,-73,-847,101
24606,-62,-3808,-547,-102,-868,96
24616,-72,-3779,-498,-127,-894,96
24626,-90,-3817,-487,-142,-914,92
24636,-132,-3854,-511,-143,-947,89
24646,-171,-3871,-538,-145,-966,93
24656,-235,-3846,-589,-142,-997,80
24666,-287,-3831,-589,-145,-1029,75
24676,-321,-3847,-612,-145,-1057,57
24686,-318,-3878,-621,-125,-1078,56
24696,-337,-3907,-643,-123,-1095,50
24706,-348,-3920,-660,-132,-1115,38
24716,-375,-3938,-636,-134,-1131,30
24726,-318,-3960,-636,-147,-1148,8
24736,-286,-3930,-625,-149,-1156,-10
24746,-262,-3851,-596,-167,-1162,-20
24756,-251,-3799,-627,-224,-1172,-34
24766,-227,-3788,-662,-266,-1173,-50
24776,-224,-3848,-673,-313,-1192,-59
24786,-237,-3876,-694,-324,-1203,-74
24796,-249,-3917,-740,-300,-1214,-80
24806,-289,-3919,-740,-261,-1226,-95
24816,-285,-3894,-695,-231,-1242,-102
24826,-278,-3851,-675,-217,-1256,-114
24836,-271,-3821,-661,-210,-1248,-119
24846,-280,-3835,-664,-246,-1242,-119
24856,-290,-3801,-636,-263,-1232,-128
24866,-307,-3820,-656,-277,-1236,-130
24876,-316,-3797,-626,-294,-1224,-127
24886,-324,-3755,-620,-297,-1215,-136
24896,-318,-3747,-596,-306,-1199,-135
24906,-327,-3740,-611,-357,-1189,-133
24916,-331,-3767,-608,-362,-1167,-137
24926,-363,-3775,-615,-368,-1156,-140
24936,-386,-3764,-632,-350,-1138,-132
24946,-396,-3700,-676,-360,-1130,-133
24956,-409,-3653,-714,-355,-1110,-137
24966,-434,-3702,-686,-374,-1101,-144
24976,-446,-3738,-670,-362,-1091,-151
24986,-467,-3741,-599,-354,-1080,-151
24996,-463,-3723,-575,-321,-1066,-155
25006,-466,-3666,-605,-312,-1061,-150
25016,-468,-3665,-604,-320,-1043,-154
25026,-499,-3674,-609,-349,-1030,-152
25036,-517,-3674,-599,-359,-1014,-152
25046,-512,-3691,-651,-376,-997,-163
25056,-537,-3753,-668,-399,-977,-153
25066,-535,-3755,-749,-428,-962,-159
25076,-533,-3743,-756,-441,-942,-158
25086,-556,-3740,-796,-440,-927,-162
25096,-541,-3758,-782,-433,-911,-163
25106,-540,-3785,-785,-428,-894,-175
25116,-545,-3797,-800,-416,-879,-173
25126,-553,-3803,-772,-391,-863,-172
25136,-567,-3791,-762,-389,-852,-177
25146,-570,-3798,-795,-418,-847,-176
25156,-561,-3782,-839,-416,-832,-173
25166,-572,-3772,-909,-430,-833,-169
25176,-582,-3762,-911,-427,-831,-178
25186,-587,-3777,-960,-416,-835,-180
25196,-575,-3785,-963,-398,-838,-173
25206,-580,-3796,-1027,-376,-841,-169
25216,-606,-3731,-1042,-359,-842,-176
25226,-629,-3711,-1044,-352,-848,-186
25236,-634,-3735,-1029,-357,-850,-181
25246,-625,-3803,-1020,-348,-853,-182
25256,-613,-3846,-1024,-332,-853,-183
25266,-604,-3878,-1039,-334,-845,-171
25276,-626,-3883,-1066,-313,-833,-165
25286,-618,-3855,-1052,-333,-843,-162
25296,-574,-3848,-1023,-348,-842,-160
25306,-574,-3863,-1013,-370,-841,-147
25316,-597,-3836,-980,-386,-825,-131
25326,-611,-3796,-1027,-386,-826,-126
25336,-657,-3745,-1055,-383,-820,-126
25347,-764,-3784,-1134,-364,-813,-152
25357,-907,-3955,-1169,-368,-796,-185
25367,-924,-4106,-1229,-352,-805,-212
25377,-797,-4204,-1288,-302,-812,-236
25387,-679,-4221,-1402,-295,-800,-265
25397,-655,-4265,-1379,-340,-774,-293
25407,-662,-4374,-1354,-412,-756,-312
25417,-622,-4516,-1365,-431,-740,-328
25427,-490,-4523,-1365,-411,-724,-339
25437,-335,-4371,-1336,-391,-695,-348
25447,-193,-4077,-1283,-416,-681,-354
25457,-162,-3815,-1252,-428,-680,-370
25467,-147,-3662,-1159,-427,-689,-372
25477,-156,-3618,-1106,-375,-723,-375
25487,-165,-3643,-1027,-256,-737,-389
25497,-264,-3682,-963,-147,-759,-393
25507,-391,-3712,-1029,-13,-790,-389
25517,-505,-3739,-1102,98,-835,-375
25527,-581,-3728,-1177,191,-885,-368
25537,-625,-3696,-1253,276,-943,-377
25547,-686,-3672,-1312,371,-997,-391
25557,-727,-3646,-1276,465,-1051,-390
25567,-739,-3644,-1268,523,-1119,-408
25577,-755,-3693,-1213,561,-1153,-423
25587,-791,-3786,-1190,556,-1161,-439
25598,-832,-3882,-1223,547,-1160,-457
25608,-863,-3932,-1258,553,-1158,-464
25618,-816,-4050,-1296,569,-1144,-479
25628,-725,-4169,-1369,588,-1142,-476
25638,-604,-4305,-1386,640,-1127,-487
25648,-506,-4449,-1397,761,-1099,-503
25658,-415,-4450,-1247,865,-1069,-501
25668,-403,-4146,-1342,939,-1035,-490
25678,-419,-3769,-1500,1032,-998,-488
25688,-464,-3431,-1450,1005,-981,-470
25698,-434,-3186,-1327,928,-993,-463
25708,-352,-3258,-1258,901,-998,-452
25718,-302,-3525,-1139,810,-987,-412
25728,-163,-3755,-789,794,-965,-379
25738,-172,-3681,-749,672,-973,-354
25748,-171,-3421,-603,568,-883,-335
25758,-261,-3328,-426,368,-816,-280
25768,-381,-3494,-438,187,-770,-233
25778,-485,-3695,-497,48,-731,-223
25788,-500,-3878,-654,64,-713,-224
25798,-547,-3930,-608,154,-680,-210
25808,-611,-3782,-625,233,-684,-232
25818,-621,-3682,-636,316,-679,-251
25828,-636,-3646,-1034,299,-683,-233
25838,-531,-3742,-948,232,-662,-160
25849,-491,-3693,-1091,114,-681,-107
25859,-362,-3598,-979,99,-662,-150
25869,-370,-3502,-924,92,-634,-198
25879,-408,-3374,-778,73,-586,-237
25889,-445,-3375,-585,40,-550,-242
25899,-441,-3384,-450,-77,-536,-237
25909,-400,-3260,-314,-138,-482,-285
25919,-321,-3131,-190,-316,-421,-291
25929,-348,-3094,-414,-526,-348,-270
25939,-417,-3081,-608,-837,-292,-296
25949,-383,-3164,-868,-1179,-279,-302
25959,-232,-3633,-1286,-1356,-275,-227
25969,-10,-4386,-1456,-1367,-210,-139
25979,258,-4913,-1695,-1245,-147,-141
25989,492,-5152,-1670,-871,-31,-197
25999,478,-5042,-1414,-471,73,-249
26009,260,-4586,-1261,-154,148,-267
26019,82,-4246,-1202,83,168,-219
26029,74,-4259,-1313,267,178,-165
26039,392,-4673,-856,414,241,-53
26049,433,-4658,-782,603,273,-76
26059,456,-4512,-594,881,330,-114
26069,209,-4168,-437,1101,370,-108
26079,29,-3708,-259,1230,380,-157
26089,-107,-3284,-270,1094,353,-175
26100,-201,-2922,-237,905,343,-286
26110,-189,-2989,-75,736,348,-352
26120,-306,-3273,70,560,352,-373
26130,-414,-3430,143,373,329,-390
26140,-512,-3341,105,114,292,-401
26150,-611,-3119,22,-213,270,-431
26160,-738,-3067,-84,-377,243,-499
26170,-796,-3274,-39,-470,222,-546
26180,-876,-3469,-134,-495,172,-573
26190,-948,-3651,-230,-392,120,-613
26200,-999,-3847,-346,-288,67,-635
26210,-1090,-4019,-572,-163,21,-628
26220,-1147,-4155,-683,-111,-22,-627
26230,-1036,-4167,-836,-89,-115,-662
26240,-835,-4165,-971,-91,-189,-690
26250,-745,-4252,-967,-82,-280,-685
26260,-663,-4325,-947,-41,-372,-704
26271,-585,-4330,-988,61,-467,-668
26281,-503,-4254,-971,177,-584,-609
26291,-388,-4186,-1028,290,-709,-554
26301,-239,-4184,-994,406,-836,-506
26311,-102,-4161,-999,348,-937,-452
26321,-44,-4081,-1074,209,-1025,-408
26331,-50,-4120,-1403,461,-1094,-404
26341,217,-4126,-832,408,-1081,-410
26351,314,-4102,-1159,397,-1202,-374
26361,472,-4221,-1127,491,-1306,-359
26371,777,-4363,-945,438,-1284,-314
26381,848,-4443,-889,493,-1254,-298
26391,908,-4427,-669,524,-1235,-331
26401,1039,-4255,-558,467,-1191,-268
26411,1128,-4310,-109,345,-1077,-161
26421,1108,-4603,-264,288,-1019,-89
26431,1193,-4928,84,483,-959,-150
26442,1310,-4899,85,610,-934,-145
26452,1368,-4724,335,764,-825,-85
26462,1373,-4532,433,774,-782,-76
26472,1586,-4294,253,768,-732,-82
26482,1659,-4424,309,741,-591,61
26492,1595,-4703,268,591,-500,99
26502,1539,-4773,-33,556,-425,100
26512,1459,-4730,-230,559,-337,124
26522,1364,-4671,-337,639,-257,126
26532,1269,-4713,-352,926,-210,110
26542,1221,-4870,-283,1243,-178,153
26552,1169,-4858,-135,1582,-160,194
26562,1178,-4483,-22,2022,-176,156
26572,1298,-3871,108,2449,-117,117
26582,1307,-3283,339,2608,-16,94
26592,1326,-2845,633,2493,108,60
26603,1325,-2617,963,2237,231,20
26613,1320,-2512,1315,1940,349,-54
26623,1367,-2458,1539,1632,441,-145
26633,1355,-2409,1703,1388,530,-229
26643,1347,-2433,1837,1220,590,-327
26653,1330,-2422,1884,1140,618,-437
26663,1268,-2331,1939,1122,658,-534
26673,1180,-2097,2095,1052,728,-645
26683,1098,-1781,2239,858,788,-781
26693,1025,-1542,2343,515,841,-894
26703,879,-1417,2311,61,867,-977
26713,697,-1384,2237,-413,898,-1068
26723,572,-1424,2184,-939,905,-1161
26733,479,-1554,2094,-1460,922,-1233
26743,457,-1928,1994,-1946,945,-1273
26753,506,-2559,1854,-2443,956,-1266
26763,624,-3258,1520,-2964,977,-1247
26774,768,-3917,1107,-3305,1005,-1249
26784,863,-4547,686,-3471,1059,-1250
26794,853,-5083,363,-3424,1118,-1231
26804,791,-5519,162,-3239,1162,-1243
26814,779,-5781,142,-3031,1227,-1193
26824,729,-5832,160,-2831,1299,-1059
26834,645,-5704,222,-2630,1345,-894
26844,597,-5597,266,-2386,1334,-709
26854,588,-5569,276,-2086,1275,-496
26864,595,-5653,275,-1775,1182,-281
26874,583,-5758,16,-1479,1092,-56
26884,504,-5777,-248,-1157,1026,175
26894,347,-5677,-404,-936,964,368
26904,221,-5380,-601,-796,894,501
26914,119,-5000,-809,-676,825,598
26924,51,-4678,-896,-616,781,695
26934,-12,-4477,-831,-649,733,768
26945,-30,-4304,-854,-719,695,827
26955,-49,-4186,-801,-784,677,872
26965,-65,-4074,-688,-847,652,906
26975,-81,-3956,-622,-885,616,940
26985,-84,-3879,-753,-811,561,971
26995,-90,-3855,-799,-676,530,968
27005,-70,-3805,-762,-580,503,948
27015,-17,-3756,-817,-484,480,938
27025,11,-3705,-850,-385,465,909
27035,59,-3611,-858,-299,448,851
27045,117,-3487,-859,-277,436,799
27055,161,-3286,-885,-322,434,740
27065,238,-3136,-767,-439,431,671
27075,306,-3025,-690,-661,429,590
27085,365,-2975,-637,-926,430,509
27095,389,-2928,-609,-1214,447,431
27106,403,-2922,-655,-1496,464,367
27116,408,-2933,-786,-1671,457,291
27126,418,-2993,-798,-1806,451,231
27136,473,-3027,-886,-1885,445,187
27146,527,-3012,-1081,-1901,437,144
27156,655,-2991,-1195,-1868,433,84
27166,740,-2908,-1452,-1827,427,33
27176,836,-2811,-1656,-1760,417,-40
27186,1001,-2786,-1895,-1736,391,-119
27196,1136,-2873,-1982,-1714,375,-184
27206,1288,-2996,-1993,-1689,337,-242
27216,1411,-3141,-2092,-1630,322,-270
27226,1501,-3183,-2233,-1552,314,-294
27236,1627,-3190,-2223,-1436,287,-289
27246,1776,-3219,-2266,-1417,234,-254
27256,1859,-3155,-2216,-1396,198,-236
27266,1948,-3177,-2219,-1305,139,-263
27276,2049,-3187,-2274,-1194,82,-246
27286,2129,-3160,-2490,-1050,43,-226
27296,2196,-3130,-2606,-928,-29,-220
27307,2345,-3033,-2637,-910,-124,-183
27317,2573,-2925,-2658,-926,-240,-130
27327,2925,-3032,-2788,-936,-338,-114
27337,3300,-3241,-2794,-985,-403,-85
27347,3496,-3371,-2828,-1016,-445,-54
27357,3518,-3376,-2759,-1021,-483,-48
27367,3408,-3361,-2631,-1099,-522,-14
27377,3074,-3263,-2592,-1199,-543,36
27387,2698,-3142,-3026,-1113,-672,56
27397,2635,-3146,-2375,-1133,-669,68
27407,2636,-3218,-2604,-1067,-647,61
27417,2219,-2931,-2296,-767,-607,-57
27427,2121,-2593,-1530,-606,-437,-165
27437,1767,-2513,-1616,-532,-417,-138
27447,1442,-2714,-1525,-503,-426,-153
27457,1402,-2747,-1513,-427,-417,-224
27467,1233,-2748,-1720,-333,-347,-262
27477,1007,-2659,-1699,-436,-293,-280
27487,737,-2562,-1763,-561,-256,-313
27497,506,-2623,-1885,-729,-228,-354
27508,352,-2768,-2117,-870,-224,-383
27518,282,-2963,-2384,-946,-243,-385
27528,320,-3079,-2637,-1000,-255,-373
27538,409,-3182,-2951,-965,-295,-359
27548,534,-3067,-3264,-944,-288,-310
27558,624,-2774,-3437,-880,-307,-302
27568,752,-2710,-3596,-728,-321,-311
27578,828,-3017,-3596,-601,-330,-307
27588,828,-3373,-3460,-535,-340,-303
27598,811,-3358,-3452,-461,-335,-286
27608,828,-3070,-3393,-317,-337,-288
27618,892,-2831,-3246,-302,-337,-264
27628,946,-2747,-3232,-385,-329,-233
27638,1003,-2807,-3230,-451,-306,-229
27648,1033,-2831,-3186,-522,-242,-213
27658,1043,-2735,-3164,-585,-204,-215
27668,1000,-2619,-3088,-650,-155,-230
27678,926,-2558,-3070,-810,-115,-230
27688,737,-2436,-3175,-1012,-69,-231
27698,496,-2481,-3247,-1110,-57,-262
27709,364,-2770,-3303,-1138,-86,-271
27719,270,-3011,-3353,-1065,-94,-239
27729,235,-3071,-3315,-870,-123,-212
27739,298,-2933,-3297,-724,-131,-163
27749,333,-2786,-3226,-639,-146,-136
27759,389,-2707,-3192,-625,-149,-110
27769,432,-2664,-3119,-661,-152,-77
27779,487,-2595,-3036,-750,-166,-58
27789,539,-2472,-2969,-858,-175,-50
27799,582,-2352,-2676,-990,-137,-62
27809,552,-2171,-2658,-1115,-111,-92
27819,562,-2098,-2768,-1198,-88,-87
27829,622,-1981,-2833,-1281,-48,-53
27839,720,-1955,-2982,-1240,-40,-65
27849,805,-2090,-3102,-1066,-13,-72
27859,827,-2104,-3313,-859,6,-78
27869,919,-2063,-3540,-547,28,-104
27879,964,-2120,-3700,-256,79,-127
27889,901,-2153,-3855,22,84,-168
27899,873,-2079,-3836,242,60,-178
27910,841,-1966,-3809,367,20,-185
27920,782,-1995,-3823,388,-36,-207
27930,688,-2092,-3994,408,-132,-240
27940,563,-2255,-4134,418,-190,-245
27950,494,-2272,-3783,411,-182,-272
27960,474,-2293,-3412,432,-179,-341
27970,484,-2441,-3223,490,-148,-342
27980,445,-2402,-3000,417,-79,-324
27990,408,-2192,-3024,388,-55,-350
28000,409,-2002,-3116,354,-22,-367
28010,518,-2132,-3215,382,-50,-374
28020,613,-2487,-3256,359,-89,-336
28030,731,-2732,-3436,318,-142,-312
28040,881,-2726,-3453,371,-197,-271
28050,1051,-2626,-3416,389,-228,-226
28060,1340,-2589,-3194,362,-186,-156
28070,1377,-2296,-2834,103,-81,-88
28080,1260,-2221,-2895,117,-1,-154
28090,1216,-2620,-2742,202,31,-72
28100,1003,-2630,-2977,195,33,-2
28111,958,-2485,-3266,397,43,-70
28121,994,-2390,-3394,517,55,-76
28131,1003,-2260,-3423,582,60,-59
28141,999,-2195,-3416,580,38,-112
28151,1121,-2397,-3385,577,-10,-152
28161,1294,-2707,-3211,544,-87,-158
28171,1500,-3064,-3047,641,-125,-173
28181,1706,-3504,-2861,840,-124,-153
28191,1901,-3846,-2589,1070,-89,-100
28201,2112,-4028,-2235,1273,-13,-29
28211,2094,-4073,-2157,1382,119,96
28221,1891,-3897,-1887,1493,315,268
28231,1602,-3565,-1512,1518,491,412
28241,1410,-3352,-1429,1481,618,588
28251,1418,-3401,-1116,1342,748,842
28261,1511,-3727,-817,1095,917,1124
28271,1677,-4190,-426,751,1180,1352
28281,1737,-4657,-275,438,1498,1588
28291,1629,-5085,-64,324,1858,1841
28301,1412,-5356,77,258,2190,2056
28312,1181,-5368,2,231,2488,2233
28322,940,-5250,-86,214,2743,2390
28332,740,-5073,-213,73,2960,2541
28342,518,-4888,-502,-109,3107,2666
28352,362,-4825,-755,-292,3204,2757
28362,252,-4769,-1112,-416,3271,2793
28372,169,-4668,-1488,-419,3295,2792
28382,122,-4501,-1694,-364,3296,2716
28392,226,-4358,-1711,-234,3221,2585
28402,507,-4174,-1826,-107,3092,2456
28412,842,-3896,-2061,107,2953,2290
28422,1083,-3656,-2391,307,2776,2157
28432,1210,-3423,-2802,514,2604,2003
28442,1337,-3215,-3323,730,2440,1825
28452,1495,-3105,-3741,820,2276,1632
28462,1803,-3013,-4178,741,2115,1438
28472,2077,-2921,-4494,529,1939,1242
28482,2342,-2817,-4652,236,1747,1047
28492,2563,-2731,-4718,-122,1564,896
28502,2588,-2631,-4803,-410,1382,767
28513,2569,-2629,-4754,-539,1189,651
28523,2530,-2679,-4740,-485,970,587
28533,2464,-2661,-4571,-152,748,515
28543,2428,-2606,-4385,364,514,427
28553,2376,-2448,-4242,902,310,366
28563,2261,-2216,-4160,1428,134,294
28573,2149,-1940,-3969,1889,30,239
28583,2026,-1799,-4812,2234,-124,208
28593,2272,-2966,-3348,2535,-61,215
28603,2178,-1999,-2744,1621,-39,28
28613,1906,597,-3370,1479,-3,-588
28623,1979,908,-3175,1548,28,-788
28633,1610,-189,-2781,747,-79,-491
28643,1438,-831,-2575,486,-232,-608
28653,1635,-1177,-2440,487,-302,-694
28663,1659,-1433,-2271,402,-277,-550
28673,1464,-1681,-2162,369,-263,-466
28683,1287,-2003,-2003,398,-285,-460
28693,1196,-2314,-1803,313,-264,-414
28703,1086,-2449,-1807,149,-244,-309
28714,954,-2574,-1857,49,-191,-240
28724,781,-2702,-1915,-28,-137,-190
28734,630,-2826,-1945,-59,-112,-147
28744,645,-2854,-1836,-129,-99,-106
28754,758,-2825,-1781,-249,-83,-67
28764,869,-2782,-1851,-339,-53,-36
28774,914,-3019,-1976,-383,-11,-22
28784,913,-3301,-1964,-455,50,4
28794,916,-3345,-2044,-509,103,33
28804,851,-3280,-2076,-501,137,50
28814,846,-3245,-2007,-549,148,87
28824,871,-3201,-1995,-599,154,102
28834,898,-3226,-2046,-613,160,117
28844,969,-3499,-2116,-621,150,137
28854,991,-3691,-2116,-637,167,178
28864,996,-3580,-2091,-660,174,178
28874,1050,-3445,-2129,-699,169,173
28884,1069,-3301,-2098,-860,186,201
28894,1013,-3269,-2121,-933,189,192
28904,889,-3435,-1982,-959,199,193
28915,810,-3550,-1892,-939,176,188
28925,782,-3582,-1859,-854,173,190
28935,783,-3694,-1834,-708,170,152
28945,837,-3763,-1816,-656,177,148
28955,833,-3674,-1957,-593,170,173
28965,883,-3648,-1940,-504,166,166
28975,964,-3551,-1989,-532,148,164
28985,1028,-3484,-2149,-507,131,140
28995,1105,-3481,-2179,-446,116,123
29005,1123,-3476,-2154,-448,130,146
29015,1083,-3543,-2124,-421,128,154
29025,1062,-3640,-2119,-395,135,192
29035,1015,-3623,-2216,-388,137,238
29045,1025,-3426,-2342,-338,127,237
29055,1055,-3300,-2269,-206,106,171
29065,1090,-3172,-2215,-136,105,146
29075,1010,-2947,-2275,-89,95,83
29085,1020,-2986,-2350,-21,43,-3
29095,923,-3174,-2389,44,22,-29
29105,854,-3126,-2451,107,-17,-69
29116,957,-2887,-2446,133,-58,-118
29126,1137,-2848,-2300,62,-72,-128
29136,1250,-3033,-2156,-100,-53,-105
29146,1203,-3280,-2068,-274,-32,-58
29156,1079,-3557,-2065,-347,-26,8
29166,950,-3693,-2170,-386,-14,97
29176,851,-3624,-2193,-397,17,140
29186,852,-3532,-2253,-343,21,149
29196,832,-3527,-2163,-346,50,173
29206,763,-3451,-2229,-347,59,153
29216,743,-3349,-2306,-315,70,131
29226,738,-3233,-2398,-246,52,106
29236,768,-3037,-2502,-216,16,83
29246,886,-3034,-2567,-92,-3,41
29256,933,-3202,-2490,-53,-1,58
29266,860,-3196,-2570,-21,-34,26
29276,880,-2949,-2482,5,-56,5
29286,975,-2846,-2231,28,-105,-7
29296,1093,-3070,-1925,36,-144,-38
29306,1097,-3132,-1657,42,-116,-32
29316,968,-2865,-1789,86,-88,-72
29326,892,-2635,-1735,90,-25,-110
29336,859,-2710,-1665,69,-1,-116
29346,897,-2935,-1720,-45,20,-100
29356,988,-3154,-1975,-72,63,-89
29367,1035,-3285,-2220,-52,112,-45
29377,968,-3331,-2473,-31,134,2
29387,843,-3425,-2751,5,100,11
29397,715,-3575,-2855,96,55,16
29407,572,-3714,-2874,124,-7,9
29417,480,-3813,-2891,165,-69,7
29427,459,-3928,-2632,169,-115,1
29437,421,-3874,-2451,137,-133,9
29447,464,-3826,-2218,134,-129,29
29457,449,-3808,-2044,70,-117,39
29467,423,-3587,-2137,-23,-86,44
29477,411,-2852,-2346,-184,-39,31
29487,591,-2774,-2573,-32,-105,-13
29497,823,-3540,-2413,-54,-109,121
29507,789,-3900,-2415,-99,-96,174
29517,948,-3807,-2427,90,-58,202
29527,1039,-3017,-2264,94,31,255
29537,1280,-2321,-2337,161,8,178
29547,1460,-2133,-2276,-75,36,234
29557,1401,-2167,-2176,-299,56,190
29567,1324,-2426,-1982,-361,74,105
29577,1094,-2369,-2044,-435,117,95
29587,970,-2207,-2084,-365,107,23
29597,1005,-2341,-2136,-321,66,-6
29607,1068,-2537,-2160,-298,56,-25
29618,1185,-2800,-2140,-161,41,-75
29628,1269,-2959,-2091,27,57,-110
29638,1346,-3034,-1981,148,68,-118
29648,1432,-3060,-1889,238,71,-120
29658,1501,-3181,-1801,333,81,-112
29668,1490,-3328,-1826,472,83,-132
29678,1421,-3370,-1815,679,89,-175
29688,1386,-3402,-1643,947,87,-238
29698,1372,-3418,-1215,1270,135,-319
29708,1211,-3484,-1054,1775,160,-437
29718,1036,-3469,-704,2283,250,-555
29728,882,-3107,-828,2668,297,-667
29738,818,-2823,-787,3199,349,-810
29748,867,-2793,-627,3656,345,-950
29758,903,-2811,-649,4065,348,-1117
29768,941,-2826,-760,4637,338,-1337
29778,995,-2812,-973,5355,303,-1569
29788,1017,-2772,-1365,6205,218,-1813
29798,1063,-2767,-1480,7116,135,-2095
29808,1187,-2827,-1549,7815,-9,-2322
29818,1365,-2899,-1584,8224,-137,-2483
29828,1529,-2901,-1456,8342,-330,-2602
29838,1679,-2813,-1313,8223,-583,-2716
29848,1913,-2790,-774,8022,-817,-2804
29858,2137,-2839,169,7657,-1016,-2771
29869,2269,-2945,1022,7084,-1111,-2661
29879,2362,-3102,1658,6454,-1198,-2450
29889,2458,-3186,1826,5725,-1316,-2176
29899,2466,-3128,1517,5076,-1422,-1914
29909,2592,-3048,1323,4396,-1430,-1696
29919,2817,-2917,1222,3668,-1358,-1452
29929,3014,-2878,1556,2994,-1161,-1222
29939,3137,-3162,2062,2411,-924,-1022
29949,3161,-3508,2527,1977,-721,-837
29959,3100,-3662,2834,1690,-577,-683
29969,3053,-3539,2937,1608,-476,-606
29979,2941,-3340,2865,1641,-395,-539
29989,2765,-3098,2845,1750,-349,-464
29999,2554,-2844,2901,1844,-354,-385
30009,2428,-2549,2877,1945,-421,-299
30019,2417,-2306,3002,2098,-477,-205
30029,2556,-2152,3200,2225,-514,-151
30039,2626,-2144,3129,2261,-563,-129
30049,2653,-2147,2930,2261,-572,-136
30059,2636,-2059,2890,2292,-584,-193
30069,2698,-1881,2951,2258,-576,-264
30079,2747,-1550,2896,2156,-542,-330
30089,2808,-1122,2953,1897,-503,-401
30099,2859,-744,2684,1620,-540,-447
30109,3144,-503,2793,1406,-281,-441
30120,3467,-622,3160,1143,-65,-299
30130,3474,-1191,3377,988,143,-215
30140,3169,-1826,3320,834,163,-182
30150,3057,-2027,3114,871,150,-229
30160,3134,-1826,3163,946,96,-174
30170,3169,-1446,3233,1030,73,-97
30180,3256,-1118,3336,1037,-1,-38
30190,3371,-1050,3380,873,-14,22
30200,3478,-1092,3496,496,64,62
30210,3435,-1027,3519,151,135,67
30220,3212,-746,3494,-145,122,32
30230,3148,-334,3469,-443,112,26
30240,3108,-168,3435,-859,54,70
30250,3061,-593,3172,-1410,-60,173
30260,2945,-1529,2378,-1997,114,276
30270,2925,-1812,2388,-2156,244,268
30280,3211,-1060,1966,-1951,137,-43
30291,3220,-673,2467,-1717,136,-23
30301,3112,-334,2553,-2000,173,-20
30311,3133,-510,2453,-2064,189,-51
30321,3219,-996,2320,-2100,145,5
30331,3568,-1285,2492,-2087,240,54
30341,3734,-1064,2570,-2175,310,5
30351,3580,-978,2033,-2233,326,-25
30361,3587,-1363,2590,-2281,495,38
30371,3416,-1292,2376,-2334,268,91
30381,2827,-1140,-7,-2072,-14,94
30391,3404,-1963,1143,-1411,594,-20
30401,4278,-2454,2484,-963,597,-284
30411,3881,-2176,2398,-215,276,94
30421,3801,-1966,3669,25,128,577
30431,3434,-1502,3288,-824,54,647
30441,3640,-1013,2714,-1112,135,511
30451,3732,-988,2794,-1286,263,577
30462,3666,-1226,2758,-1849,372,679
30472,3559,-1520,2399,-2468,460,710
30482,3383,-1761,2032,-2744,509,694
30492,3146,-1847,2083,-2750,497,694
30502,2963,-1629,2102,-2750,494,735
30512,2893,-1490,1564,-2505,466,690
30522,2955,-1707,1579,-2078,484,690
30532,3058,-1618,1833,-1930,480,709
30542,3140,-1388,2130,-1736,511,745
30552,3181,-1580,2392,-1627,555,874
30562,3157,-2006,2290,-1770,568,1033
30572,3231,-2493,1908,-1891,594,1090
30582,3243,-3084,1551,-1943,571,1101
30592,3233,-3457,1035,-2014,525,1052
30602,3271,-3599,642,-1922,474,958
30612,3224,-3434,311,-1865,482,884
30623,3103,-3152,157,-1735,506,836
30633,2999,-2945,244,-1631,502,845
30643,2871,-2723,354,-1674,481,881
30653,2810,-2471,566,-1743,445,875
30663,2863,-2229,1106,-1767,414,864
30673,2880,-2151,1627,-1916,390,850
30683,2741,-2359,1287,-2074,269,876
30693,2588,-2865,811,-2061,110,931
30703,2263,-3225,-305,-2042,-80,923
30713,2111,-3572,-932,-1576,-212,801
30723,2015,-3795,-1079,-1229,-264,666
30733,1934,-3694,-1195,-1144,-318,513
30743,1956,-3410,-1295,-1106,-388,355
30753,2071,-2974,-1130,-1163,-438,210
30763,2183,-2450,-783,-1424,-469,59
30773,2192,-2049,-690,-1779,-525,-57
30783,2110,-2136,-794,-2041,-683,-92
30794,1992,-2592,-919,-2237,-872,-59
30804,1941,-3280,-1237,-2201,-1101,-57
30814,1899,-4052,-1592,-1833,-1263,-124
30824,1884,-4702,-1704,-1322,-1385,-205
30834,1823,-4981,-1798,-757,-1483,-281
30844,1669,-4773,-1796,-160,-1555,-373
30854,1511,-4252,-1811,435,-1654,-472
30864,1378,-3647,-1693,911,-1765,-566
30874,1291,-3154,-1595,1132,-1914,-644
30884,1274,-2842,-1484,1128,-2085,-694
30894,1269,-2733,-1439,930,-2272,-755
30904,1325,-2879,-1581,802,-2463,-840
30914,1394,-3279,-1726,864,-2591,-909
30924,1486,-3726,-1727,1059,-2697,-935
30934,1594,-4019,-1600,1386,-2786,-965
30944,1714,-4163,-1392,1831,-2879,-1022
30954,1783,-4200,-1304,2243,-2988,-1055
30965,1790,-4068,-1197,2571,-3081,-1057
30975,1740,-3855,-1186,2820,-3206,-1046
30985,1704,-3655,-1172,2996,-3322,-1008
30995,1750,-3549,-893,3032,-3419,-931
31005,1827,-3514,-709,2906,-3565,-829
31015,1955,-3551,-632,2780,-3697,-728
31025,2115,-3635,-610,2692,-3802,-655
31035,2270,-3694,-639,2636,-3853,-585
31045,2382,-3593,-680,2603,-3823,-517
31055,2387,-3319,-819,2574,-3794,-450
31065,2396,-3002,-904,2554,-3772,-406
31075,2517,-2783,-740,2533,-3693,-282
31085,2638,-2740,-544,2460,-3658,-119
31095,2747,-2759,-402,2341,-3558,53
31105,2802,-2825,-111,2190,-3442,170
31115,2785,-2886,175,2108,-3325,251
31126,2696,-3003,302,2117,-3305,316
31136,2642,-3178,271,2137,-3303,371
31146,2702,-3311,155,2158,-3284,447
31156,2857,-3542,66,2140,-3237,509
31166,3094,-3672,-12,1989,-3163,513
31176,3258,-3682,-365,1830,-3083,477
31186,3334,-3713,-648,1795,-2947,440
31196,3303,-3719,-722,1707,-2740,469
31206,3096,-3554,-724,1557,-2514,509
31216,2892,-3332,-707,1433,-2385,519
31226,2757,-3222,-649,1324,-2303,534
31236,2693,-3196,-625,1283,-2235,552
31246,2682,-3193,-650,1306,-2164,561
31256,2640,-3171,-802,1414,-2113,545
31266,2631,-3052,-775,1529,-2019,546
31276,2608,-2882,-911,1708,-1994,499
31286,2779,-2864,-747,1979,-1973,438
31296,3001,-2824,-626,2131,-1985,380
31306,3251,-2680,-531,2204,-1902,309
31316,3360,-2613,-406,2240,-1782,281
31326,3337,-2610,-268,2113,-1664,272
31336,3205,-2555,-418,1851,-1593,286
31346,3105,-2396,-519,1614,-1541,285
31356,3082,-2271,-594,1359,-1503,275
31366,3105,-2142,-631,1110,-1401,291
31377,3045,-2138,-644,904,-1287,344
31387,2953,-2244,-575,701,-1180,356
31397,2836,-2434,-430,546,-1094,310
31407,2832,-2542,-228,442,-1037,212
31417,2866,-2556,-87,432,-986,100
31427,2883,-2452,41,420,-936,-5
31437,2877,-2315,40,368,-857,-87
31447,2792,-2291,14,373,-775,-159
31457,2715,-2278,88,302,-702,-241
31467,2686,-2279,69,163,-665,-307
31477,2719,-2350,42,47,-630,-345
31487,2796,-2504,14,-82,-597,-354
31497,2919,-2672,71,-173,-531,-393
31507,3004,-2808,160,-250,-423,-443
31517,3037,-2875,286,-328,-292,-476
31527,2973,-2860,342,-354,-182,-530
31537,2815,-2834,393,-311,-156,-600
31547,2792,-2717,457,-372,-183,-658
31557,2814,-2501,363,-437,-181,-692
31567,2799,-2501,232,-456,-172,-693
31577,2710,-2716,235,-629,-129,-670
31587,2646,-2970,152,-881,-91,-637
31597,2626,-3234,141,-993,-50,-591
31607,2524,-3369,272,-955,14,-554
31617,2413,-3317,272,-866,-42,-558
31628,2430,-3227,332,-824,-92,-560
31638,2485,-3128,202,-912,-224,-487
31648,2613,-3127,185,-1131,-232,-418
31658,2703,-3079,133,-1503,-188,-423
31668,2735,-3209,-176,-1705,-123,-475
31678,2692,-3434,-327,-1808,-64,-456
31688,2623,-3714,-461,-1860,-2,-456
31698,2536,-3838,-225,-1758,52,-548
31708,2522,-3807,-89,-1498,-79,-750
31718,2767,-3885,-210,-1217,-161,-790
31728,2743,-3857,-141,-946,-125,-680
31738,2548,-3778,-283,-765,-156,-669
31748,2422,-3601,-554,-579,-151,-773
31758,2289,-3375,-857,-209,-187,-851
31768,2269,-3213,-995,173,-215,-840
31778,2352,-3015,-797,307,-184,-726
31788,2383,-2811,-585,229,-144,-659
31798,2376,-2635,-252,93,-80,-658
31808,2591,-2612,538,41,-14,-721
31818,2447,-2547,118,43,-113,-534
31828,2056,-2207,438,15,6,-558
31838,2152,-1909,403,28,-67,-627
31848,2131,-2002,469,54,-98,-496
31858,2065,-2255,250,-105,-169,-393
31868,2101,-2476,92,-178,-160,-358
31879,2110,-2649,-119,-189,-131,-428
31889,2066,-2726,-475,-154,-90,-544
31899,2113,-2755,-526,-16,-58,-618
31909,2106,-2807,-423,87,-28,-675
31919,2096,-2829,-210,87,-4,-773
31929,2122,-2811,-82,-4,0,-875
31939,2187,-2826,-34,-42,-10,-963
31949,2251,-2862,-75,-50,-13,-982
31959,2215,-2862,-77,-9,3,-971
31969,2126,-2785,-120,86,-22,-992
31979,2124,-2723,-93,136,-37,-1000
31989,2126,-2653,-345,136,-50,-977
31999,2053,-2662,-523,335,-63,-957
32009,2000,-2739,-692,460,-157,-957
32019,2189,-2896,-730,465,-223,-915
32029,2390,-2995,-883,441,-314,-881
32039,2694,-3140,-875,399,-239,-847
32049,2669,-3532,-708,510,-109,-741
32059,2400,-3563,-480,521,-110,-680
32069,2370,-3098,-559,512,-169,-713
32079,2420,-2605,-486,481,-220,-600
32089,2477,-2066,-449,93,-207,-433
32099,2569,-1849,-492,-234,-189,-357
32109,2656,-2069,-534,-439,-185,-329
32119,2689,-2480,-651,-606,-164,-262
32130,2658,-2736,-938,-653,-168,-227
32140,2679,-2752,-1132,-580,-170,-251
32150,2780,-2647,-1267,-448,-137,-304
32160,2833,-2507,-1381,-314,-94,-339
32170,2865,-2339,-1374,-222,-41,-370
32180,2884,-2128,-1260,-140,12,-393
32190,2853,-1957,-1186,-74,51,-436
32200,2861,-1829,-1070,-62,100,-471
32210,2960,-1766,-891,-119,107,-471
32220,3086,-1819,-896,-207,125,-471
32230,3234,-1994,-973,-250,188,-523
32240,3374,-2190,-987,-248,278,-566
32250,3459,-2324,-1076,-226,353,-605
32260,3564,-2303,-1069,-214,442,-645
32270,3630,-2136,-1117,-264,509,-670
32280,3695,-1892,-1222,-299,578,-685
32290,3770,-1784,-1158,-335,618,-667
32300,3904,-1851,-1218,-428,662,-633
32310,4059,-1967,-1165,-492,687,-581
32320,4215,-2090,-1142,-558,706,-517
32330,4350,-2165,-1136,-571,733,-447
32340,4439,-2239,-1121,-563,769,-369
32350,4526,-2279,-1060,-577,814,-287
32360,4520,-2195,-1042,-593,857,-196
32370,4431,-2022,-1192,-536,869,-127
32381,4336,-1829,-1199,-484,861,-79
32391,4240,-1595,-1155,-465,786,-16
32401,4186,-1364,-1075,-508,729,67
32411,4119,-1186,-872,-577,723,138
32421,3950,-1027,-712,-624,681,125
32431,3967,-912,-556,-653,604,75
32441,4033,-833,-631,-663,519,75
32451,4066,-850,-902,-561,459,42
32461,4149,-1015,-914,-353,449,-9
32471,4204,-1125,-882,-238,476,-65
32481,4149,-1110,-990,-17,503,-157
32491,4094,-1104,-906,236,485,-253
32501,4047,-994,-857,418,451,-323
32511,4059,-844,-785,519,392,-368
32521,4076,-773,-771,605,333,-401
32531,4100,-871,-634,754,243,-423
32541,4190,-1054,-779,900,127,-428
32551,4340,-1162,-972,1029,26,-427
32561,4487,-1162,-1097,1111,-28,-406
32571,4617,-1022,-1106,1127,-32,-354
32581,4653,-776,-1010,995,-25,-255
32591,4587,-521,-1035,778,-3,-135
32601,4520,-500,-987,439,-8,17
32611,4446,-693,-1100,-43,-14,180
32621,4272,-1149,-1951,-324,-130,286
32632,4474,-1602,-1045,-809,159,406
32642,4438,-1387,-1294,-1121,306,139
32652,4698,-971,-555,-952,472,-241
32662,4658,-440,-218,-719,395,-375
32672,4281,-320,-6,-386,342,-253
32682,3916,-412,-226,-295,178,-285
32692,3827,-401,-652,-456,120,-307
32702,3958,-616,-805,-583,93,-273
32712,4134,-1167,-832,-780,144,-183
32722,4212,-1719,-386,-997,248,-146
32732,4345,-1817,-128,-1289,320,-179
32742,4259,-1907,-466,-1430,215,-29
32752,4006,-1936,-806,-1666,294,64
32762,4006,-1591,-866,-1825,205,50
32772,4520,-1023,-207,-1907,288,44
32782,4886,-700,87,-2005,276,237
32792,4852,-977,-149,-2012,309,315
32802,4939,-1638,-40,-1962,374,300
32812,4755,-2038,-565,-1831,346,182
32822,4728,-2042,-461,-1478,336,36
32832,4775,-1485,-384,-1283,153,-25
32842,4847,-1329,-856,-1004,24,-3
32852,4868,-1825,-790,-780,93,159
32862,4729,-2330,-13,-964,273,335
32872,4426,-2780,-507,-853,190,413
32883,4227,-3669,-690,-476,6,547
32893,3905,-3419,-1022,-285,-125,373
32903,4047,-2619,-1475,165,-326,331
32913,4419,-2012,-1388,458,-364,419
32923,4798,-1801,-1046,456,-346,475
32933,4933,-1816,-894,375,-284,441
32943,4946,-2056,-889,418,-211,428
32953,4776,-2462,-1147,500,-171,420
32963,4507,-2806,-1309,790,-171,431
32973,4265,-2703,-1283,1032,-238,371
32983,4221,-2401,-1369,1338,-365,285
32993,4303,-2519,-1370,1628,-491,296
33003,4333,-2625,-1246,1773,-585,320
33013,4325,-2544,-1369,2007,-651,273
33023,4268,-2544,-1383,2157,-690,274
33033,4095,-2557,-1521,2167,-751,290
33043,3977,-2629,-1591,2193,-843,287
33053,3945,-2806,-1483,2252,-930,313
33063,3926,-2905,-1482,2323,-1012,355
33073,3978,-3020,-1513,2456,-1078,391
33083,3972,-3003,-1453,2536,-1089,421
33093,3968,-2895,-1423,2601,-1115,437
33103,3955,-2751,-1304,2647,-1127,452
33113,3881,-2586,-1285,2664,-1130,441
33123,3743,-2503,-1402,2643,-1156,410
33134,3542,-2332,-1620,2566,-1211,353
33144,3319,-2202,-1852,2541,-1277,293
33154,3139,-2185,-1878,2526,-1327,262
33164,3015,-2208,-1663,2526,-1386,218
33174,2930,-2301,-1388,2552,-1458,160
33184,2913,-2462,-1260,2589,-1527,101
33194,2977,-2621,-1340,2627,-1577,50
33204,3092,-2700,-1348,2648,-1551,40
33214,3109,-2401,-1474,2467,-1496,61
33224,3114,-2047,-1725,2325,-1451,55
33234,3151,-2039,-1718,2227,-1443,102
33244,3071,-2173,-1572,1990,-1453,111
33254,3042,-2264,-1584,1895,-1488,45
33264,3042,-2340,-1537,2035,-1532,15
33274,3007,-2339,-1485,2236,-1578,-24
33284,3052,-2246,-1510,2348,-1619,-49
33294,3129,-1930,-1578,2266,-1635,-45
33304,3194,-1657,-1715,2097,-1638,-32
33314,3314,-1649,-1673,1812,-1635,-3
33324,3466,-1733,-1601,1548,-1624,30
33335,3556,-1783,-1663,1429,-1555,49
33345,3552,-2012,-1714,1509,-1477,29
33355,3528,-2304,-1628,1579,-1420,69
33365,3452,-2368,-1656,1562,-1370,97
33375,3433,-2026,-1533,1497,-1287,71
33385,3405,-1665,-1530,1405,-1230,69
33395,3326,-1572,-1380,1278,-1158,119
33405,3245,-1570,-1209,1080,-1099,171
33415,3138,-1585,-1250,994,-1045,194
33425,3006,-1695,-1188,1050,-989,208
33435,2884,-1921,-1209,1063,-975,236
33445,2880,-2085,-1348,1016,-984,241
33455,2963,-2079,-1442,969,-968,156
33465,3073,-2010,-1477,900,-885,75
33475,3022,-1980,-1320,783,-753,55
33485,2844,-2050,-1132,657,-663,48
33495,2647,-2141,-839,545,-604,51
33505,2547,-2201,-621,457,-589,98
33515,2401,-2219,-525,460,-579,146
33525,2350,-2332,-332,528,-581,187
33536,2300,-2419,-115,589,-579,236
33546,2248,-2421,-122,635,-570,263
33556,2169,-2282,-224,787,-549,267
33566,2081,-2165,-267,850,-526,266
33576,2003,-2166,-324,844,-526,272
33586,2028,-2199,-295,788,-558,292
33596,2128,-2322,-267,764,-608,305
33606,2269,-2471,-217,784,-660,316
33616,2451,-2588,-178,813,-712,311
33626,2623,-2519,-335,856,-723,315
33636,2705,-2419,-466,966,-699,306
33646,2717,-2371,-225,988,-674,321
33656,2758,-2325,15,914,-687,319
33666,2771,-2435,59,875,-727,309
33676,2801,-2630,16,871,-729,309
33686,2781,-2760,-64,844,-710,314
33696,2773,-2701,-136,798,-696,307
33706,2761,-2568,-199,778,-682,289
33716,2751,-2546,-138,727,-674,294
33726,2729,-2666,-41,643,-690,305
33737,2745,-2843,-14,591,-741,298
33747,2790,-2937,-9,622,-782,272
33757,2840,-2956,69,662,-801,272
33767,2842,-2863,51,685,-813,286
33777,2838,-2788,133,740,-815,299
33787,2794,-2774,190,750,-805,333
33797,2731,-2741,219,746,-795,346
33807,2675,-2688,153,727,-788,340
33817,2651,-2616,100,727,-769,341
33827,2630,-2581,149,746,-733,356
33837,2574,-2622,159,718,-711,361
33847,2572,-2633,144,700,-714,339
33857,2632,-2655,99,721,-692,327
33867,2693,-2672,148,712,-637,346
33877,2677,-2685,91,705,-581,366
33887,2658,-2774,-9,706,-524,377
33897,2595,-2835,-43,679,-463,387
33907,2553,-2764,-108,636,-419,397
33917,2508,-2709,-190,621,-360,397
33927,2426,-2680,-109,620,-310,400
33938,2327,-2619,-106,625,-267,381
33948,2209,-2542,-10,657,-252,373
33958,2139,-2571,108,637,-260,369
33968,2092,-2652,139,597,-278,355
33978,2070,-2758,48,571,-278,334
33988,2048,-2863,-5,565,-262,319
33998,1992,-2866,-39,548,-231,318
34008,1919,-2865,-3,514,-213,309
34018,1902,-2827,0,411,-202,324
34028,1860,-2818,-13,273,-191,339
34038,1882,-2845,-43,169,-196,334
34048,1913,-2971,-46,101,-203,318
34058,1949,-3133,-62,101,-213,305
34068,1968,-3262,-92,129,-204,296
34078,1952,-3309,-123,142,-213,274
34088,1984,-3245,-258,95,-223,240
34098,2022,-3190,-284,31,-223,216
34108,2037,-3266,-288,-26,-238,202
34118,2057,-3359,-248,-109,-251,157
34128,2096,-3453,-286,-160,-258,123
34139,2092,-3560,-293,-176,-265,99
34149,2108,-3637,-249,-186,-279,88
34159,2115,-3674,-231,-184,-283,97
34169,2035,-3669,-302,-200,-293,104
34179,1954,-3656,-346,-185,-296,70
34189,1957,-3740,-383,-199,-317,26
34199,2022,-3811,-380,-219,-339,-32
34209,2115,-3893,-493,-226,-367,-98
34219,2284,-4027,-569,-256,-387,-135
34229,2455,-4204,-626,-288,-399,-131
34239,2564,-4364,-748,-262,-399,-96
34249,2605,-4489,-830,-152,-400,-52
34259,2594,-4458,-842,12,-406,-24
34269,2554,-4255,-694,206,-424,-18
34279,2517,-3957,-611,328,-432,-13
34289,2490,-3621,-569,394,-441,1
34299,2446,-3373,-497,360,-442,32
34310,2439,-3208,-502,269,-435,37
34320,2454,-3204,-497,216,-439,32
34330,2490,-3289,-529,162,-425,20
34340,2536,-3368,-524,125,-410,7
34350,2618,-3421,-563,99,-395,6
34360,2698,-3454,-586,98,-399,12
34370,2752,-3496,-662,111,-396,24
34380,2751,-3457,-673,133,-381,34
34390,2681,-3342,-673,157,-368,49
34400,2611,-3207,-619,189,-369,67
34410,2528,-3078,-620,193,-365,95
34420,2505,-3005,-639,185,-379,113
34430,2483,-2958,-627,153,-375,132
34440,2464,-2899,-618,123,-356,142
34450,2420,-2853,-644,121,-329,153
34460,2415,-2868,-632,106,-321,165
34470,2446,-2874,-612,86,-313,169
34481,2468,-2859,-591,103,-303,162
34491,2463,-2833,-613,131,-277,172
34501,2391,-2774,-625,172,-253,184
34511,2317,-2713,-609,186,-239,188
34521,2247,-2667,-583,213,-220,189
34531,2229,-2688,-578,221,-209,192
34541,2258,-2711,-575,203,-184,199
34551,2340,-2770,-605,188,-152,206
34561,2379,-2808,-619,149,-96,211
34571,2400,-2784,-630,120,-33,204
34581,2337,-2718,-660,79,36,207
34591,2289,-2673,-709,54,79,211
34601,2291,-2699,-706,68,117,228
34611,2308,-2865,-718,86,159,242
34621,2323,-2974,-735,88,191,243
34631,2409,-3029,-758,103,215,223
34642,2499,-2991,-756,87,265,217
34652,2527,-2906,-781,38,313,216
34662,2541,-2891,-838,20,358,189
34672,2582,-2991,-892,-8,396,167
34682,2629,-3094,-884,-35,438,111
34692,2650,-3147,-923,-23,470,16
34702,2686,-3164,-809,-23,510,-52
34712,2652,-3154,-797,-113,527,-120
34722,2642,-3163,-708,-173,539,-194
34732,2699,-3367,-583,-212,560,-245
34742,2809,-3679,-472,-307,587,-283
34752,3001,-3928,-582,-406,613,-340
34762,3202,-4142,-712,-477,672,-387
34772,3279,-4242,-854,-593,744,-423
34782,3264,-4194,-1004,-710,826,-432
34792,3128,-4116,-961,-733,922,-410
34802,2894,-4101,-812,-704,959,-364
34813,2703,-4046,-630,-625,939,-348
34823,2563,-3832,-411,-511,891,-337
34833,2502,-3536,-266,-383,847,-328
34843,2460,-3299,-87,-262,788,-296
34853,2461,-3156,-1,-225,743,-244
34863,2436,-2975,13,-275,732,-189
34873,2355,-2762,-28,-354,749,-130
34883,2239,-2621,-67,-405,752,-66
34893,2152,-2617,5,-453,743,-32
34903,2135,-2686,20,-552,718,-6
34913,2211,-2826,-54,-583,698,8
34923,2254,-2990,-93,-567,677,7
34933,2303,-3114,-127,-598,678,24
34943,2299,-3161,-230,-627,673,25
34953,2271,-3207,-342,-653,678,31
34963,2204,-3235,-394,-675,684,47
34973,2123,-3253,-434,-682,674,65
34984,2047,-3224,-373,-668,665,75
34994,2026,-3179,-331,-652,639,79
35004,1991,-3142,-303,-630,617,85
35014,1952,-3132,-314,-616,604,91
35024,1895,-3142,-315,-585,579,90
35034,1827,-3104,-280,-569,567,88
35044,1765,-3025,-236,-541,544,82
35054,1730,-2997,-196,-501,520,95
35064,1698,-3032,-151,-487,497,108
35074,1678,-3052,-114,-495,474,116
35084,1705,-3050,-147,-457,457,104
35094,1706,-3109,-138,-407,442,111
35104,1691,-3164,-125,-390,443,119
35114,1663,-3188,-129,-356,431,111
35124,1680,-3240,-151,-317,408,100
35134,1701,-3296,-208,-291,398,98
35145,1676,-3310,-245,-257,385,98
35155,1660,-3322,-247,-225,363,94
35165,1648,-3338,-301,-197,327,87
35175,1658,-3416,-287,-161,281,84
35185,1673,-3449,-285,-128,231,86
35195,1703,-3444,-285,-84,178,78
35205,1724,-3431,-294,-36,130,72
35215,1703,-3443,-247,-39,84,80
35225,1712,-3448,-216,-71,22,77
35235,1745,-3454,-307,-53,-36,57
35245,1779,-3592,-312,26,-87,49
35255,1811,-3703,-282,72,-132,22
35265,1895,-3783,-286,110,-168,-5
35275,1988,-3835,-261,141,-190,-18
35285,2086,-3854,-253,110,-201,-30
35295,2207,-3867,-301,71,-204,-46
35305,2284,-3946,-441,30,-194,-58
35315,2388,-4089,-548,4,-173,-72
35325,2488,-4274,-656,-28,-166,-95
35335,2600,-4424,-807,-51,-169,-116
35345,2658,-4506,-985,-25,-180,-155
35355,2674,-4589,-1038,14,-182,-182
35365,2643,-4627,-1073,39,-209,-179
35375,2621,-4676,-1033,75,-258,-163
35385,2587,-4599,-975,130,-325,-155
35396,2522,-4472,-855,257,-407,-147
35406,2422,-4247,-740,415,-483,-115
35416,2237,-3957,-549,617,-561,-71
35426,2033,-3621,-395,812,-640,-14
35436,1834,-3228,-232,954,-707,38
35446,1652,-2893,-127,1033,-769,84
35456,1510,-2750,-92,989,-813,126
35466,1433,-2727,-149,777,-852,154
35476,1441,-2912,-274,609,-891,153
35486,1532,-3311,-435,481,-944,159
35496,1699,-3776,-557,422,-971,180
35506,1856,-4187,-720,475,-1002,201
35516,2012,-4450,-925,591,-1033,215
35526,2120,-4358,-1036,686,-1039,235
35536,2138,-4109,-1161,832,-1039,267
35546,2039,-3892,-1202,967,-1046,315
35556,1970,-3764,-1204,1063,-1062,363
35566,1942,-3731,-1158,1116,-1085,395
35576,1971,-3665,-1088,1099,-1089,422
