t_ms,ax,ay,az,gx,gy,gz
0,391,-266,3958,-190,98,-83
10,362,-293,3941,-130,42,-29
20,366,-359,4007,-73,19,-13
30,332,-341,4020,-69,23,-13
40,317,-327,4025,-32,-16,-21
50,326,-316,4069,-6,-47,-23
60,330,-298,4080,-1,-40,-32
70,378,-235,4084,-1,-20,-35
80,363,-188,4109,-13,0,-47
90,357,-160,4066,-40,4,-37
100,374,-173,4076,-62,26,-42
110,380,-190,4058,-78,30,-45
120,391,-179,4044,-87,38,-45
130,349,-206,4005,-86,52,-33
140,319,-239,4010,-66,9,-16
150,313,-290,3995,-53,-5,-15
160,361,-295,4041,-25,-29,-16
170,383,-305,4071,-28,-11,-19
180,356,-300,4067,-48,-2,-11
190,370,-318,4053,-57,-3,8
200,411,-277,4077,-34,10,-9
210,386,-231,4079,-33,23,-16
220,401,-242,4056,-21,31,-29
230,361,-247,4066,-13,50,-44
240,349,-212,4044,-31,62,-41
250,318,-238,4045,-59,90,-38
260,280,-248,4036,-88,102,-34
270,275,-207,3993,-91,78,-10
280,277,-206,4002,-73,45,1
290,267,-235,4036,-59,20,18
300,247,-263,4045,-66,-1,18
310,271,-305,4063,-53,-34,23
320,282,-338,4059,-66,-37,37
330,289,-324,4049,-62,-55,41
340,296,-340,4040,-36,-89,40
350,369,-367,4058,-13,-82,50
360,393,-365,4063,-20,-58,32
370,390,-387,4063,-11,-35,33
380,418,-351,4056,-12,21,0
390,431,-362,4055,-47,104,-55
400,369,-404,4059,-66,151,-70
410,364,-253,4003,-44,121,-56
420,366,-200,4051,-47,129,-46
430,348,-196,4028,-78,167,-41
440,290,-220,4038,-108,166,-35
450,287,-262,4053,-118,158,-5
460,234,-288,4051,-138,154,18
470,212,-265,4033,-136,129,39
480,195,-371,3970,-88,43,49
490,145,-341,3974,-8,-35,31
500,188,-323,4069,5,-75,29
510,248,-304,4080,-28,-58,31
520,277,-282,4079,-37,-55,23
530,326,-294,4053,-15,-66,15
540,326,-297,4093,-12,-35,6
550,295,-292,4054,-31,-23,7
560,344,-270,4037,-26,-29,16
570,342,-251,4065,-31,-7,19
580,386,-237,4057,-56,23,32
590,336,-257,4062,-86,55,33
600,276,-269,4003,-60,14,41
610,344,-310,4077,-30,-14,46
620,322,-300,4064,-53,17,40
630,298,-278,4057,-69,23,42
640,263,-333,4050,-76,-10,39
650,265,-358,4030,-67,-31,30
660,273,-347,4017,-43,-57,17
670,311,-329,4042,-21,-80,10
680,365,-293,4071,-37,-43,9
690,349,-295,4066,-70,-7,16
700,295,-372,3998,-68,-4,17
710,322,-350,4039,-25,-35,6
720,337,-350,4047,-44,-19,10
730,376,-308,4058,-72,17,10
740,319,-395,4075,-120,65,41
750,197,-524,3998,-162,56,58
760,257,-453,3946,-48,-71,23
770,325,-375,4046,-10,-81,10
780,348,-401,4075,-49,-34,16
790,284,-419,4057,-75,1,33
800,306,-440,4040,-44,-35,58
810,317,-412,4059,-36,-22,69
820,319,-369,4049,-40,-5,50
830,306,-332,4032,-9,-32,29
840,325,-349,4064,21,-50,19
850,324,-314,4062,2,-35,9
860,296,-318,4053,-14,-44,13
870,311,-311,4007,1,-73,23
880,287,-386,4046,-8,-70,23
890,254,-427,4023,-38,-76,23
900,280,-452,4021,-17,-98,12
910,361,-405,4029,-5,-96,-1
920,392,-330,4054,-25,-50,-4
930,412,-327,4078,-53,6,1
940,337,-371,3990,-45,15,0
950,321,-423,3990,42,-51,-19
960,328,-401,4040,52,-27,-32
970,343,-314,4058,16,6,-26
980,371,-211,4081,-7,24,-6
990,386,-254,4099,-54,74,14
1000,254,-346,4040,-95,88,43
1010,262,-386,3997,-36,-5,39
1020,270,-356,4018,-2,-22,30
1030,288,-349,4037,-24,-5,28
1040,293,-330,4035,-29,0,22
1050,256,-421,4030,11,-53,13
1060,241,-489,4006,29,-67,4
1070,268,-419,4041,51,-75,-19
1080,319,-347,4069,36,-62,-27
1090,348,-326,4071,1,-22,-23
1100,324,-322,4036,-22,2,-8
1111,307,-340,4038,-14,-5,-1
1121,294,-349,4017,-9,-12,-2
1131,287,-354,4028,1,-37,-1
1141,290,-388,4049,-10,-46,0
1151,326,-381,4036,-20,-58,6
1161,364,-368,4050,-32,-52,10
1171,369,-348,4030,-40,-46,5
1181,356,-382,3989,-4,-77,1
1191,394,-417,4024,11,-80,-13
1201,397,-468,4045,10,-55,-15
1211,396,-322,4048,1,-38,-24
1221,413,-340,4043,-7,-14,-31
1231,394,-310,4035,0,4,-30
1241,389,-327,4034,22,-26,-32
1252,388,-347,4042,7,8,-29
1262,363,-316,4027,-14,17,-23
1272,382,-281,4000,-19,17,-10
1282,375,-296,4008,-22,16,0
1292,364,-335,4025,-42,30,19
1302,335,-361,4012,-60,25,19
1312,309,-393,4016,-36,-19,13
1322,338,-401,4065,-28,-28,21
1332,319,-371,4018,-32,-35,9
1342,366,-382,4042,0,-69,7
1352,394,-397,4042,5,-60,3
1362,410,-379,4020,11,-49,5
1372,422,-373,4082,12,-27,1
1382,415,-361,4039,-5,-11,-2
1393,376,-360,3977,6,-14,1
1403,371,-363,3990,29,-37,-2
1413,365,-395,4037,-1,-16,8
1423,393,-364,4024,-27,-2,18
1433,398,-331,4021,-31,6,15
1443,367,-394,4020,-53,29,8
1453,338,-406,4007,-29,1,2
1463,354,-381,4018,10,-24,-1
1473,375,-367,4018,-13,3,1
1483,361,-330,4058,-30,-2,6
1493,377,-324,4043,-43,6,9
1503,373,-346,4041,-34,9,15
1513,353,-370,4050,-54,27,23
1523,328,-373,4007,-42,17,18
1533,355,-383,4039,-6,-13,11
1544,335,-413,4046,-14,0,1
1554,341,-388,4038,-35,1,-10
1564,329,-352,4022,5,-19,-5
1574,325,-368,4032,9,-10,-7
1584,321,-388,4056,-4,-3,5
1594,314,-358,4050,-10,-18,8
1604,330,-359,4041,-11,-28,10
1614,330,-367,4019,-26,-18,15
1624,334,-356,4018,-19,-40,2
1634,358,-388,4028,-29,-54,-1
1644,423,-353,4018,-31,-26,3
1654,379,-388,3996,-31,-23,10
1664,409,-397,4014,-10,-38,9
1674,397,-373,4024,-19,-13,2
1685,385,-343,4011,-20,-5,1
1695,384,-356,4051,-14,5,9
1705,350,-386,4020,-24,8,15
1715,369,-360,4042,-16,-9,11
1725,378,-350,4051,-21,0,10
1735,336,-358,4005,-3,-28,8
1745,334,-411,4040,15,-52,13
1755,376,-412,4028,-1,-39,-4
1765,382,-363,4048,-26,-27,-10
1775,416,-363,4050,-16,-24,-10
1785,381,-376,4007,-22,-8,-2
1795,397,-395,3993,-9,-15,6
1805,388,-377,4005,2,-16,3
1815,381,-376,3987,5,-22,1
1826,374,-375,4013,10,-27,3
1836,395,-354,4032,9,-21,-7
1846,374,-368,4030,-3,-15,3
1856,376,-385,4039,-3,-16,-2
1866,374,-386,4048,4,-26,-6
1876,376,-397,4040,-1,-28,1
1886,393,-390,4042,-14,-20,-5
1896,419,-375,4026,-13,-13,-3
1906,421,-376,4017,-10,-8,-8
1916,385,-364,4028,-12,2,-4
1926,395,-385,4031,-7,-8,0
1936,373,-387,4010,7,-18,-8
1946,399,-376,4043,26,-27,-10
1956,397,-352,4052,11,-11,-1
1970,414,-318,4064,-17,17,6
1980,378,-367,4044,-57,48,22
1990,272,-357,3899,-11,-26,4
2000,376,-394,3997,98,-133,-20
2010,472,-643,4174,50,-76,-8
2020,461,-183,4029,64,-82,-17
2030,506,-268,4074,25,-37,6
2040,433,-304,4075,-35,41,23
2050,392,-421,4029,-73,66,43
2060,376,-418,4000,-26,3,20
2070,390,-379,4028,-2,-21,11
2080,423,-348,4060,-38,9,11
2090,409,-360,4067,-60,20,9
2100,377,-376,4004,-19,-34,4
2110,396,-373,4010,31,-61,5
2120,400,-394,4061,45,-60,-8
2130,448,-321,4033,31,-35,-14
2140,460,-306,4044,11,0,-6
2150,433,-324,4065,-14,27,14
2160,427,-307,4024,-12,51,4
2170,386,-351,4028,-19,50,0
2180,347,-385,4015,-37,48,-5
2190,312,-348,3992,-27,34,-2
2200,306,-391,4019,-13,-2,15
2210,320,-380,4026,-25,3,20
2220,320,-380,4018,-21,-18,22
2230,345,-395,4031,2,-40,28
2240,379,-392,4029,6,-47,22
2250,403,-400,4038,5,-39,20
2260,383,-387,4024,2,-16,25
2270,382,-419,4008,41,-57,19
2280,420,-432,4013,37,-56,18
2290,429,-402,4010,40,-50,11
2300,446,-344,4037,22,-27,7
2310,429,-362,4032,-15,3,5
2320,423,-348,4011,-34,30,1
2330,423,-309,4017,-25,23,-2
2340,385,-338,4021,-32,30,-8
2350,380,-362,4012,-38,30,-4
2360,383,-362,4042,-32,27,-8
2370,372,-359,4044,-45,36,-10
2380,389,-343,4020,-45,39,-6
2390,352,-363,4040,-40,35,-2
2400,365,-366,4044,-20,12,4
2410,384,-336,4049,-6,8,-11
2420,324,-346,4021,-8,10,-4
2430,353,-343,4024,44,-46,-7
2440,379,-332,4058,36,-33,-6
2450,387,-302,4065,8,-18,2
2460,391,-303,4037,1,-27,11
2470,395,-357,4059,10,-43,5
2480,421,-351,4033,-9,-43,7
2490,432,-346,4023,-12,-41,9
2500,436,-365,4026,-18,-35,12
2510,459,-364,3999,-24,-19,8
2520,480,-357,4016,-15,-4,8
2530,476,-351,4007,-25,23,11
2540,430,-364,4005,-25,42,16
2550,422,-386,3999,1,26,5
2560,419,-359,4032,27,19,-1
2570,388,-335,4011,19,18,-7
2580,376,-331,4033,27,-11,1
2590,387,-365,4047,22,-29,-2
2600,389,-345,4053,11,-27,1
2610,413,-338,4041,3,-27,1
2620,404,-351,4047,-18,-16,5
2630,410,-371,4029,-39,-5,11
2640,398,-350,4003,-63,15,20
2650,407,-336,3987,-14,-24,15
2660,415,-383,4052,-6,-5,4
2670,419,-381,4034,-21,6,3
2680,432,-340,4044,-27,16,7
2690,401,-342,4028,-23,23,7
2700,388,-374,4027,-12,9,14
2710,367,-378,4009,-18,8,4
2720,373,-372,4013,4,-22,-2
2730,393,-387,4040,5,-17,-8
2740,387,-379,4037,-2,-10,0
2750,389,-347,4037,7,-22,-2
2760,400,-366,4034,7,-12,3
2770,380,-351,4013,10,-12,1
2780,389,-358,4016,8,-18,4
2790,394,-340,4012,1,-21,10
2800,464,-337,4020,-9,-21,-1
2810,390,-346,4039,-14,9,-4
2820,394,-350,4011,-12,0,7
2830,393,-369,4022,-4,12,0
2840,377,-359,4020,10,9,-9
2850,367,-378,4047,19,-9,-16
2860,367,-343,4056,19,-10,-19
2870,381,-346,4030,8,-9,-15
2880,385,-329,4027,14,-17,-7
2890,394,-331,4040,1,-16,5
2900,375,-350,4028,-17,-2,13
2910,372,-338,4018,1,-21,10
2920,304,-285,3966,9,-43,23
2930,413,-395,4062,35,-25,5
2940,390,-338,4024,21,-35,-3
2950,422,-330,4036,21,-34,-2
2960,417,-368,4040,0,-1,-6
2970,424,-334,4021,-11,7,-3
2980,407,-328,4031,-21,17,-6
2990,399,-339,4040,-13,13,-6
3000,375,-342,4002,14,-21,-5
3010,395,-365,4032,30,-17,-6
3020,390,-342,4040,4,0,-9
3030,419,-323,4046,-7,7,-3
3040,422,-321,4050,-37,34,4
3050,371,-323,4010,-30,17,2
3060,396,-339,4027,14,-15,0
3070,385,-360,4043,8,-8,-5
3080,407,-334,4037,6,-21,-7
3090,429,-327,4051,2,-22,-3
3100,416,-354,4038,-2,-7,-4
3110,415,-354,4045,-7,-3,2
3120,411,-334,4021,2,-11,-4
3130,416,-345,4025,9,-3,-1
3140,402,-374,4007,16,-10,-6
3150,429,-381,4036,19,-19,-5
3160,412,-251,4015,2,-17,-15
3171,410,-363,4061,-18,12,1
3181,414,-336,4006,-39,37,0
3191,399,-336,3979,-6,9,0
3201,384,-354,4007,37,-20,-8
3211,400,-356,4018,37,-24,-5
3221,411,-319,4036,31,-15,-10
3231,402,-290,4060,19,-14,-13
3241,394,-418,4077,-3,-4,11
3251,451,-252,4060,-4,-4,3
3261,376,-350,4039,-4,-21,9
3271,419,-341,4065,-2,-15,7
3281,432,-326,4042,-3,-12,4
3291,429,-329,4035,3,-4,6
3301,410,-308,4053,-11,6,12
3311,398,-312,4044,2,-6,1
3321,394,-354,4044,11,-33,0
3331,419,-348,4034,10,-33,-7
3341,413,-340,4042,7,-40,-12
3351,443,-334,4019,-1,-34,-10
3361,463,-302,4030,1,-28,-5
3372,480,-280,4039,-19,5,5
3382,468,-303,4017,-40,27,3
3392,447,-322,4007,-41,43,14
3402,434,-312,3996,-16,30,9
3412,407,-345,4024,-8,37,3
3422,397,-335,4041,5,19,0
3432,415,-323,4050,9,12,-1
3442,403,-330,4059,0,9,-1
3452,391,-327,4051,-2,3,-6
3462,394,-335,4048,1,-13,-7
3472,408,-329,4017,-3,-26,-6
3482,444,-334,4039,4,-29,-2
3492,438,-321,4044,-17,-14,10
3502,445,-316,4007,-20,-10,16
3512,435,-330,4007,-25,3,20
3522,421,-337,4009,-16,0,19
3532,408,-366,4029,-13,2,13
3542,404,-341,4020,-15,6,3
3552,414,-324,4018,-4,-8,-2
3562,415,-332,4047,-11,10,8
3573,370,-341,4050,-32,19,12
3583,389,-355,4010,-17,-2,4
3593,389,-339,4047,-7,3,2
3603,375,-329,4062,-29,13,6
3613,366,-333,4061,-33,8,7
3623,335,-334,4035,-15,-14,3
3633,375,-330,4054,-2,-17,-4
3643,384,-298,4036,-15,-18,-2
3653,411,-311,4032,-23,-8,7
3663,395,-322,4052,-29,5,11
3673,401,-340,4039,-34,14,16
3683,384,-332,4019,-23,1,10
3693,371,-356,4021,-4,-6,11
3703,372,-351,4043,7,-8,1
3713,385,-351,4042,9,1,3
3723,397,-325,4031,-3,5,4
3733,392,-320,4049,-13,11,5
3743,386,-317,4040,-19,6,9
3753,394,-300,4033,-18,8,8
3763,389,-311,4024,-25,6,9
3774,385,-332,4022,-29,8,15
3784,359,-327,4018,-28,2,24
3794,366,-299,4011,-34,-11,33
3804,364,-334,4029,-41,-22,31
3814,380,-353,4020,-47,-26,23
3824,387,-404,4038,-37,-49,16
3834,398,-407,4040,-30,-47,5
3844,468,-334,4034,-36,-30,9
3854,437,-348,4000,-7,-33,-14
3864,449,-353,4023,6,-27,0
3874,454,-335,4053,3,-9,-1
3884,460,-301,4026,4,-1,13
3894,442,-314,4042,-3,12,14
3904,420,-345,4049,-15,27,17
3914,397,-328,4010,-16,11,15
3924,383,-341,4042,-5,-3,8
3934,392,-349,4037,-14,-5,3
3944,394,-330,4037,-8,-13,-4
3954,420,-358,4036,-1,-21,-3
3964,417,-335,4039,-7,-10,-3
3975,418,-319,4042,-15,3,4
3985,418,-316,4043,-9,-3,10
3995,400,-339,4021,-6,4,6
4005,403,-331,4017,2,-8,3
4015,427,-322,4011,-10,-3,12
4025,423,-323,4005,-21,5,11
4035,411,-354,4024,-19,-6,15
4045,405,-378,4017,-28,-1,13
4055,409,-381,4019,-22,-10,-2
4065,428,-367,4043,-19,-5,-8
4075,438,-326,4052,-10,0,-2
4085,439,-327,4034,0,-7,-3
4095,437,-305,4061,-1,2,0
4105,427,-300,4067,-24,15,10
4115,404,-318,4031,-10,-3,8
4125,390,-303,4020,-27,-7,13
4135,381,-289,4025,-25,-11,17
4145,401,-324,4049,-26,-22,16
4155,417,-333,4048,-41,-12,9
4165,441,-367,4062,-50,-8,10
4175,425,-361,4015,-47,3,15
4185,421,-356,4020,-7,-17,8
4195,407,-397,4048,3,-21,2
4205,413,-378,4042,6,-21,5
4215,427,-341,4044,2,-15,4
4226,446,-322,4052,-16,-6,11
4236,424,-345,4058,-32,13,21
4246,440,-339,4008,-46,22,26
4256,407,-348,4002,-25,3,16
4266,389,-366,3995,-34,5,12
4276,401,-378,3994,-14,-12,5
4286,414,-357,4013,-16,3,0
4296,410,-334,4041,-20,11,1
4306,410,-345,4050,6,-10,-3
4316,433,-414,4086,9,-8,1
4326,419,-181,4078,10,-18,-4
4336,420,-328,4059,-21,8,6
4346,401,-314,4044,-38,27,15
4356,399,-339,4038,-55,30,16
4366,402,-333,4008,-38,10,17
4376,398,-355,4020,-36,12,17
4386,389,-369,4009,-49,23,12
4396,384,-386,3994,-27,-5,3
4406,387,-400,4042,-7,-14,-5
4416,395,-369,4032,-10,-1,-6
4426,418,-324,4006,9,-18,-10
4436,410,-337,4038,4,1,2
4446,396,-337,4028,-16,11,11
4456,382,-326,4015,-18,9,13
4466,394,-323,4021,-13,-2,12
4477,392,-338,4038,-30,6,11
4487,370,-356,4044,-39,9,20
4497,384,-365,4030,-42,5,20
4507,363,-390,4008,-29,-5,9
4517,378,-402,4033,-21,-17,-3
4527,415,-388,4040,-9,-20,0
4537,426,-348,4066,-14,-5,0
4547,414,-356,4050,-15,-4,9
4557,411,-354,4009,-28,10,5
4567,396,-352,4004,-17,6,7
4577,408,-362,4045,-5,1,9
4587,375,-347,4023,-18,3,-5
4597,402,-354,4034,-10,-5,5
4607,387,-372,4049,-22,1,7
4617,402,-358,4027,-20,-1,13
4627,388,-356,4041,-30,7,3
4637,383,-361,4046,-35,5,15
4647,408,-380,4013,-40,1,10
4657,381,-373,4004,-15,-7,4
4667,397,-371,4031,1,-13,7
4677,400,-365,4036,2,-12,-4
4687,392,-366,4034,-4,-10,0
4697,412,-347,4032,-2,-17,-4
4707,407,-345,4036,-6,-16,-1
4717,411,-365,4018,-20,-7,-2
4728,406,-362,4038,-24,-8,10
4738,397,-376,4012,-33,0,7
4748,404,-341,4009,-16,-13,2
4758,411,-357,4030,-8,-13,-1
4768,410,-363,4046,-15,4,5
4778,401,-375,4046,-25,12,9
4788,400,-373,4045,-28,6,6
4798,397,-361,4038,-28,2,1
4808,399,-346,4031,-22,1,0
4818,396,-373,4048,-17,-9,6
4828,405,-390,4028,-16,-8,2
4838,408,-381,4045,-10,-7,-3
4848,402,-388,4046,-17,-4,-4
4858,404,-377,4006,5,-28,-16
4868,397,-409,4031,20,-36,-19
4878,420,-363,4030,18,-30,-11
4888,436,-329,4020,2,-26,-4
4898,441,-347,4033,1,-10,5
4908,447,-368,4036,-33,17,12
4918,423,-341,4019,-49,31,21
4928,394,-348,3980,-34,15,14
4938,408,-407,4029,-25,18,0
4948,371,-378,4028,-27,17,-7
4958,372,-372,4007,2,-31,-19
4968,414,-396,4061,10,-18,-8
4979,394,-386,4064,7,-27,-19
4989,413,-368,4048,6,-19,-24
4999,412,-348,4037,4,-17,-20
5009,413,-337,4030,-3,-10,-8
5019,410,-328,4019,-6,-7,-7
5029,414,-335,4023,-11,-3,2
5039,400,-339,4026,-23,10,10
5049,377,-363,4024,-27,13,7
5059,347,-384,4019,-17,-4,6
5069,379,-360,4053,-6,-6,2
5079,392,-341,4053,-20,-2,2
5089,398,-346,4053,-38,10,12
5099,390,-356,4046,-49,11,21
5109,397,-396,4039,-55,10,26
5119,414,-388,4016,-70,22,29
5129,393,-398,3983,-76,31,25
5139,377,-385,3976,-44,-6,12
5149,381,-423,4001,-22,-26,7
5159,371,-413,4002,-25,-30,7
5169,391,-389,4026,-20,-36,8
5180,408,-380,4005,-32,-16,8
5190,374,-358,4002,9,-56,16
5200,376,-405,3960,2,-14,37
5210,404,-303,4100,30,-6,-4
5220,415,-351,4025,13,-22,-5
5230,385,-352,4031,9,-13,-9
5240,366,-416,4006,21,-43,-2
5250,351,-371,3996,30,-66,8
5260,368,-413,4023,33,-65,7
5270,432,-405,4015,1,-62,-8
5280,438,-389,4024,18,-54,-5
5290,471,-383,4019,15,-27,-7
5300,432,-404,4037,6,-12,-10
5310,443,-382,4010,9,6,-11
5320,418,-388,4023,13,0,-13
5330,397,-383,4025,37,-15,-24
5340,366,-462,3998,44,-38,-24
5350,348,-418,4031,76,-70,-44
5360,417,-344,4049,64,-78,-54
5370,392,-317,3993,71,-87,-68
5381,437,-358,4028,95,-109,-75
5391,433,-421,4057,99,-102,-75
5401,424,-381,4051,110,-116,-85
5411,433,-418,4046,111,-111,-85
5421,448,-391,4039,116,-113,-85
5431,468,-302,4014,127,-104,-91
5441,467,-297,4043,119,-104,-79
5451,493,-271,4057,106,-80,-61
5461,357,-348,4017,83,-86,-40
5471,331,-399,3965,142,-200,-30
5481,468,-336,4002,192,-229,-53
5491,468,-318,4009,229,-259,-91
5501,554,-227,4052,229,-233,-91
5511,611,-182,4055,203,-163,-78
5521,640,-209,4053,152,-109,-45
5531,664,-160,4056,86,-38,-20
5541,665,-166,4051,2,59,18
5551,595,-186,3994,-43,82,39
5561,452,-272,3998,-26,40,52
5571,213,-407,4022,-12,-52,108
5582,-56,-497,3973,-2,-290,357
5592,-83,-482,3819,121,-612,618
5602,101,-613,3882,363,-915,954
5612,532,-698,3909,573,-1095,810
5622,562,-592,4056,670,-955,413
5632,959,-238,4121,642,-831,-48
5642,1033,268,4118,414,-645,-261
5652,1198,507,4071,225,-465,-353
5662,1203,385,4023,44,-305,-359
5672,1404,333,4009,-104,-109,-387
5682,1425,373,4001,-230,84,-416
5692,1339,209,4037,-300,241,-366
5702,1164,-16,4002,-379,407,-338
5712,1190,-97,3986,-415,547,-415
5722,1094,-132,3964,-434,728,-499
5732,539,-503,3970,-365,805,-469
5742,121,-908,3986,-245,615,-228
5752,236,-695,4002,-160,509,-114
5762,459,-347,3967,-76,413,-46
5772,520,-165,3969,11,407,-14
5783,517,-148,4050,32,407,19
5793,481,-77,4070,14,433,51
5803,394,-69,4064,3,394,50
5813,372,-62,4082,-49,307,27
5823,425,-41,4066,-106,273,22
5833,353,-94,3977,-140,218,-26
5843,372,-277,3981,-84,110,-70
5853,307,-448,4006,-90,6,-86
5863,499,-356,3993,-94,-31,-97
5873,573,-253,4034,-83,39,-122
5883,530,-244,4006,-85,70,-134
5893,510,-350,4017,-46,44,-92
5903,468,-324,4034,-24,26,-73
5913,458,-368,4092,-49,-19,-49
5923,454,-359,4110,-52,23,-67
5933,407,-294,4080,-49,28,-108
5943,355,-287,4081,-19,-19,-143
5953,993,-550,3983,68,-62,-468
5963,341,105,4050,33,-23,-328
5973,341,148,4044,-65,-53,-190
5984,505,-7,3970,-171,-98,-144
5994,519,-226,3953,-188,-86,-117
6004,520,-298,3949,-152,-106,-128
6014,514,-311,3992,-89,-151,-115
6024,631,-350,4055,-71,-88,-87
6034,815,-460,4093,-67,-14,-37
6044,977,-602,3075,-194,571,358
6054,567,-286,3967,35,490,-149
6064,97,-299,4066,-72,335,23
6074,-21,-119,4033,-3,109,-44
6084,345,-168,4051,-53,-29,-17
6094,563,-194,4040,-71,-6,0
6104,541,-258,4038,-69,61,5
6114,406,-244,3998,-44,66,-6
6124,396,-259,3992,-15,31,15
6134,431,-328,4010,2,-5,32
6144,428,-385,4034,6,-13,40
6154,477,-336,4032,22,-2,9
6164,479,-352,4020,26,22,7
6174,427,-310,4050,31,14,-9
6185,380,-242,4041,36,-19,-17
6195,440,-255,4044,18,-38,-15
6205,490,-283,4037,6,-28,-9
6215,487,-200,4057,10,-17,-18
6225,448,-195,4055,-7,0,-7
6235,460,-228,4016,3,-13,-7
6245,429,-233,4000,-12,2,8
6255,463,-201,4009,-32,4,-5
6265,518,-229,4019,-51,8,-7
6275,564,-254,4021,-59,52,4
6285,504,-304,4029,-69,95,12
6295,506,-302,4056,-83,130,17
6305,518,-305,4037,-104,178,32
6315,613,-308,4100,-101,187,25
6325,-188,-152,3974,-171,323,-19
6335,56,-12,4046,-72,-120,-270
6345,447,-323,4038,-163,-208,-220
6355,811,-334,4006,-101,-63,-187
6365,563,-333,4022,-37,67,-147
6375,329,-293,4068,7,53,-164
6386,385,-268,4073,24,5,-182
6396,480,-237,4103,18,18,-139
6406,445,-184,4064,2,55,-91
6416,417,-169,4045,-41,65,-57
6426,436,-230,4070,-89,82,-46
6436,451,-254,4049,-148,70,-55
6446,537,-317,4011,-173,77,-117
6456,579,-447,4006,-160,126,-195
6466,572,-569,3988,-118,179,-280
6476,453,-638,3943,-60,223,-339
6486,365,-617,3960,41,146,-431
6496,343,-515,4001,164,126,-399
6506,288,-518,4044,218,135,-294
6516,187,-310,4065,215,111,-150
6526,75,-36,4098,169,86,14
6536,19,102,4111,41,14,110
6546,166,-33,4079,-56,-112,176
6556,482,-288,4023,-109,-170,233
6566,427,-333,4007,-105,-97,218
6576,323,-294,3993,-63,-135,155
6587,329,-259,3991,-42,-231,131
6597,531,-323,4004,-26,-241,112
6607,639,-246,4029,-102,-118,132
6617,533,-245,4017,-177,11,155
6627,551,-449,4038,-170,23,152
6637,718,-488,4051,-97,107,174
6647,612,-459,4048,-15,223,137
6657,-249,-397,3993,41,207,-48
6667,134,-356,4094,37,-54,-162
6677,562,-183,4057,-12,-42,-153
6687,706,-71,4066,-42,133,-76
6697,462,-37,4029,-138,306,49
6707,141,-14,4039,-234,304,154
6717,83,35,3965,-311,120,140
6727,1790,482,3717,-229,237,408
6737,3037,755,3993,183,1418,1265
6747,-304,-927,4316,-63,1781,789
6757,-1190,-526,4199,-390,1124,281
6767,-1364,-669,4218,-631,548,-377
6777,-1103,-792,3998,-644,-64,-1272
6788,157,-755,3854,-409,-388,-1647
6798,850,-766,3835,-119,-141,-1571
6808,765,-643,3929,97,258,-1275
6818,163,-374,4081,147,457,-865
6828,-151,-248,4141,91,355,-476
6838,-128,-109,4184,4,195,-144
6848,24,-33,4157,-38,97,140
6858,-92,-230,4254,-135,1,309
6868,-263,-936,4140,-339,-231,260
6878,347,-1310,3973,-424,-329,7
6888,779,-1301,3884,-340,-55,-269
6898,775,-1067,3858,-186,332,-408
6908,381,-721,3878,-57,599,-435
6918,-119,-417,3906,-22,607,-461
6928,-237,-446,3973,-53,437,-524
6938,11,-496,3998,-67,378,-550
6948,58,-529,4001,-16,409,-531
6958,-93,-537,4047,13,387,-482
6968,-124,-622,4035,55,315,-515
6978,-334,-538,4086,119,196,-584
6989,-548,-408,4142,101,-25,-643
6999,-644,99,4965,-166,-452,-553
7009,-33,93,3817,-457,-716,-31
7019,282,-642,3967,-246,-389,232
7029,-94,-853,3948,-115,-374,466
7039,-182,-1092,3912,110,-462,464
7049,-18,-1230,3919,423,-601,435
7059,121,-1063,3976,732,-744,415
7069,171,-701,4097,919,-770,390
7079,297,-419,4093,888,-742,352
7089,-681,19,3805,753,-625,93
7099,-999,303,4077,630,-977,-717
7109,999,-476,3825,-8,-1279,-356
7120,1608,-217,3684,46,-676,-226
7130,1418,-379,3802,80,-151,264
7140,239,-321,4009,118,-33,414
7150,126,-272,4093,235,-267,384
7160,269,-268,4259,334,-410,441
7170,1487,-685,4194,492,-405,579
7180,789,-346,4225,754,-64,700
7190,-197,140,4293,744,-121,560
7200,242,8,4141,582,-386,426
7210,693,25,3950,503,-344,557
7220,934,-265,4049,392,-167,735
7230,657,-739,4230,52,309,1230
7241,-610,949,4002,26,-94,891
7251,-52,1245,4195,183,-315,566
7261,966,217,3975,-176,-358,330
7271,1262,-226,3879,-258,-142,491
7281,969,-65,3810,-260,-15,647
7291,921,97,3790,-214,198,826
7301,539,-216,3855,-134,472,783
7311,796,-45,3822,-224,297,682
7321,191,-602,3926,-131,267,397
7331,9,-887,4044,-175,172,71
7341,125,-782,4176,-107,62,-128
7351,242,-366,4301,-45,40,-177
7361,256,-290,4326,-45,20,-167
7372,295,-259,4317,-16,-9,-141
7382,363,-243,4262,-7,-39,-104
7392,355,-360,4199,-53,-70,-96
7402,402,-372,4100,-66,-135,-113
7412,453,-343,4008,-31,-197,-109
7422,564,-217,3981,95,-252,-63
7432,630,-135,3993,185,-239,12
7442,1570,531,3852,225,-220,63
7452,933,-244,3897,251,125,-19
7462,581,12,3910,167,-68,76
7472,504,18,3988,145,61,67
7482,386,-72,4017,22,55,55
7493,488,-186,4030,-26,49,40
7503,292,-313,4005,-102,66,-17
7513,384,-196,3989,-103,10,-103
7523,425,-185,4023,-120,47,-104
7533,392,-275,4006,-129,71,-80
7543,363,-300,4029,-112,46,-43
7553,418,-333,4056,-110,31,-15
7563,495,-257,4078,-87,16,10
7573,504,-203,4069,-57,27,36
7583,532,-150,4070,-34,42,86
7593,524,-202,4056,-24,60,83
7603,454,-370,4040,-19,73,81
7613,457,-337,3992,-6,25,75
7624,410,-284,3989,19,20,87
7634,371,-204,3997,29,-13,80
7644,416,-153,4051,39,1,50
7654,318,-183,4062,11,10,53
7664,359,-250,4045,-6,-36,68
7674,355,-293,4044,32,-81,110
7684,452,-221,4040,126,-134,192
7694,561,-171,4103,180,-124,278
7704,549,-137,4124,193,-77,366
7714,574,3,4053,129,-39,414
7724,390,-343,4053,45,31,404
7734,265,-414,3863,-120,-28,427
7745,260,-346,3946,-213,55,303
7755,100,-463,3967,-275,24,182
7765,209,-408,3989,-234,-38,51
7775,354,-282,4109,-159,-47,-100
7785,475,-253,4148,-107,-66,-180
7795,595,-80,4139,-49,-43,-173
7805,598,-89,4139,-19,-33,-135
7815,584,-174,4094,-11,-33,-101
7825,574,-145,4016,5,-42,-60
7835,538,-109,3989,32,-45,-20
7845,520,-87,3970,73,-86,26
7855,509,-60,3988,136,-97,68
7865,504,-178,4029,155,-99,107
7876,812,277,3970,154,-80,66
7886,515,-402,4042,113,-80,26
7896,437,-368,4014,69,-57,-33
7906,457,-296,4065,55,-56,-102
7916,420,-330,4087,-17,26,-118
7926,455,-265,4072,-10,-21,-148
7936,529,-311,4064,0,-11,-150
7946,491,-270,4061,-1,11,-126
7956,533,-206,4054,10,-9,-87
7966,511,-202,4025,5,15,-71
7976,500,-224,4028,-30,20,-47
7986,432,-204,4027,-49,36,-39
7997,416,-270,4017,-49,4,-41
8007,446,-221,4019,-26,-6,-42
8017,498,-160,4041,-17,-15,-45
8027,503,-162,4056,-40,13,-26
8037,489,-191,4045,-59,26,-18
8047,479,-213,4036,-74,46,-8
8057,396,-238,4022,-60,10,-20
8067,470,-253,4022,-9,-34,-9
8077,455,-209,4061,2,-29,28
8087,480,-196,4074,-3,-36,56
8097,459,-231,4085,-11,-29,53
8107,447,-293,4066,-32,-37,27
8117,440,-348,4049,-44,-63,-1
8127,473,-285,4053,-9,-92,-3
8137,536,-212,4044,-9,-65,4
8147,586,-349,4084,-70,8,41
8157,668,103,3989,-76,36,33
8167,529,-37,4003,-59,108,60
8177,461,-336,4054,-97,110,75
8187,420,-369,4021,-134,99,20
8197,407,-350,4008,-99,54,-31
8207,399,-372,4035,-87,32,-34
8217,403,-306,4021,-64,-2,-52
8227,439,-254,4066,-27,-22,-55
8237,440,-238,4031,-14,-33,-30
8247,435,-227,4045,9,-71,43
8257,529,-169,4016,30,-92,95
8267,527,-181,4028,42,-75,112
8277,490,-211,4043,23,-46,115
8287,500,-275,4035,-1,-25,52
8297,460,-287,4037,-28,23,-30
8307,465,-330,4026,-64,26,-54
8317,470,-302,4029,-89,67,-55
8327,496,-264,4061,-110,99,-47
8338,527,-202,4069,-130,172,-28
8348,552,-188,4105,-169,255,15
8358,491,-234,4068,-187,338,47
8368,447,-319,4027,-146,310,4
8378,-672,359,3949,-53,245,-219
8388,199,-176,4039,-10,-188,-299
8398,-41,-195,3943,-81,-344,-503
8408,912,-321,3923,-83,-479,-413
8418,1416,-316,3964,-3,-219,-215
8428,1005,-220,4006,77,93,-86
8438,575,-328,4023,83,272,-168
8448,545,-520,4057,28,375,-206
8458,388,-567,4085,-55,398,-111
8468,-880,-143,3854,-325,72,272
8478,305,-659,4051,-3,23,-4
8488,433,-896,4091,-127,-167,113
8498,1653,-89,3577,353,-339,354
8508,3109,761,3989,993,471,996
8518,260,-739,4229,407,1535,622
8528,-1217,-1178,4052,43,1142,425
8538,-1562,-1514,3886,-194,-221,919
8548,-743,465,3861,482,-1171,1405
8558,649,263,4277,601,-1180,1325
8568,439,263,4254,550,-903,1161
8578,279,77,4254,656,-985,1146
8588,566,33,4186,716,-993,1214
8598,468,97,4090,538,-819,992
8608,562,-232,4026,296,-639,798
8618,340,-226,3981,148,-583,668
8628,1828,-251,3664,108,-287,178
8638,-226,-580,3852,-181,-224,405
8648,799,-389,3935,181,-439,95
8658,675,-63,4047,134,-345,-44
8669,950,134,4092,173,-290,-75
8679,1112,240,4183,111,-171,-138
8689,1163,158,4192,-16,19,-130
8699,1038,104,4108,-105,165,-93
8709,595,-34,4001,-119,198,74
8719,488,-205,3903,-27,82,186
8729,507,-247,3942,55,-6,107
8739,538,-211,3999,64,-22,-7
8749,515,-218,4100,20,-31,-50
8759,530,-230,4147,-43,-23,-149
8769,540,-256,4195,-95,-42,-254
8779,652,-153,4202,-106,-120,-417
8789,900,193,4144,-52,-176,-525
8799,1168,458,4081,-66,-85,-587
8809,1233,388,3953,-113,125,-691
8819,1154,457,3894,-60,355,-821
8829,1027,277,4017,-71,629,-850
8839,778,-83,3924,-215,837,-757
8849,521,-260,3892,-294,984,-676
8859,231,-266,3939,-288,965,-643
8869,-184,-500,4037,-307,757,-364
8879,-7,-647,3923,-331,437,-254
8889,177,-405,4024,-337,1039,-711
8899,-801,373,4159,-158,397,-268
8909,240,19,4166,-127,-103,135
8919,571,-524,4130,-117,22,49
8929,393,-385,4105,-55,56,-68
8939,455,-215,4049,-43,34,-117
8949,437,-238,3976,-90,124,-120
8959,278,-210,3973,-129,62,-48
8969,445,-15,3979,-143,41,-3
8979,383,-82,4031,-180,86,-14
8989,382,-123,4033,-191,48,-20
9000,378,-140,4043,-127,21,-31
9010,351,-196,4091,-92,-3,-19
9020,305,-214,4062,-54,-49,-13
9030,298,-217,4085,-39,-74,24
9040,349,-256,4063,-57,-66,33
9050,377,-249,4069,-69,-62,15
9060,379,-240,4068,-85,-51,23
9070,401,-198,4048,-77,-29,5
9080,393,-233,4051,-66,-17,-8
9090,421,-190,4037,-54,-16,-29
9100,396,-201,3998,-28,-2,-58
9110,345,-186,4043,-1,-23,-51
9121,353,-175,4015,5,-41,-42
9131,346,-232,4061,4,-46,-33
9141,356,-266,4055,-32,-46,-27
9151,372,-217,4079,-44,-34,-28
9161,386,-186,4053,-56,-24,-5
9171,392,-181,4032,-46,-26,3
9181,431,-187,4063,-50,-8,22
9191,384,-199,4039,-72,17,36
9201,355,-226,3995,-64,-16,69
9211,388,-219,3992,-11,-70,54
9221,211,-329,4025,-4,-83,92
9232,97,-347,4032,-9,-217,197
9242,121,-353,4018,16,-400,348
9252,219,-158,3914,135,-602,627
9262,459,-6,3970,271,-705,943
9272,796,-279,4018,335,-632,984
9282,709,-361,4060,293,-422,808
9292,535,-133,4014,280,-293,656
9302,2,-298,4218,94,20,170
9312,405,-360,3943,30,-225,365
9322,409,-242,4054,69,-188,84
9332,236,-358,4032,107,-318,99
9343,484,-271,4095,203,-391,-82
9353,496,-190,4102,211,-403,-160
9363,530,-149,4149,181,-399,-133
9373,770,50,4081,173,-389,-95
9383,925,245,4073,163,-314,-73
9393,981,241,4066,113,-210,6
9403,960,100,4047,29,-75,59
9413,615,-216,3971,-36,-12,115
9423,508,-420,3931,-10,-55,121
9433,514,-356,3918,42,-109,7
9443,553,-272,3972,84,-131,-60
9454,690,-97,4090,103,-136,-102
9464,784,-22,4101,73,-96,-72
9474,844,84,4104,32,-38,-38
9484,860,166,4062,19,7,16
9494,764,-7,4067,8,36,42
9504,696,-82,4003,13,40,42
9514,583,-94,3968,19,30,31
9524,503,-324,3958,-6,-1,63
9534,511,-360,3973,-23,-18,30
9544,590,-227,3979,-7,-44,-36
9554,602,-138,3997,22,-65,-82
9564,736,15,4016,81,-89,-100
9575,754,20,4075,100,-72,-90
9585,802,-22,4103,74,-46,-48
9595,812,4,4097,30,15,0
9605,619,-104,4049,-27,64,79
9615,434,-218,3963,-10,11,139
9625,517,-231,4010,27,-74,85
9635,680,-46,4011,17,-75,28
9645,727,-64,4059,9,-63,10
9655,803,30,4050,5,-44,-3
9665,833,69,4012,17,-23,-23
9675,817,9,4014,32,-2,-19
9686,784,-61,3998,41,23,-18
9696,675,-177,4021,6,53,3
9706,585,-247,3998,-12,44,51
9716,575,-216,3999,-46,43,51
9726,605,-62,3986,-18,9,42
9736,559,-155,4060,3,-15,30
9746,609,-183,4066,2,-29,3
9756,604,-167,4044,21,-58,3
9766,699,-44,4033,41,-73,-46
9776,732,31,4035,63,-69,-95
9786,761,7,4018,51,-55,-80
9797,804,49,4014,30,-32,-60
9807,672,-151,4000,11,-11,14
9817,687,-165,3997,-17,2,15
9827,668,-105,3996,-32,9,32
9837,619,-46,3974,-25,8,54
9847,674,-56,4031,7,-15,22
9857,673,-93,4050,-28,4,7
9867,668,-80,4029,4,-24,-31
9877,683,-80,4035,22,-32,-44
9887,735,-6,4053,46,-35,-38
9897,696,-67,4056,36,-10,10
9908,632,-160,4033,19,-8,24
9918,637,-150,4006,28,-32,18
9928,669,-91,4019,20,-38,22
9938,706,-32,4023,14,-41,48
9948,620,-24,3990,10,-38,61
9958,583,-186,4002,47,-86,18
9968,601,-199,3996,39,-106,-60
9978,710,-48,3992,61,-105,-114
9988,817,55,4036,54,-90,-107
9998,900,149,4041,30,-43,-62
10008,864,133,4043,20,-3,-1
10018,772,-115,4035,9,13,50
10029,662,-191,4013,-6,1,39
10039,649,-106,3981,-1,-9,28
10049,678,-15,3975,7,-33,17
10059,694,-1,3987,2,-26,21
10069,653,-130,4024,-8,-27,-12
10079,726,-97,4037,-7,-24,-24
10089,765,22,4057,0,-13,-37
10099,733,16,4037,17,-13,-33
10109,767,31,4044,17,-11,-21
10119,749,13,4022,7,1,-3
10129,661,-110,4035,11,-12,-8
10139,666,-162,4007,-6,-16,-4
10149,659,-79,4000,-31,-21,5
10159,707,-46,4002,-18,-37,19
10169,735,-44,4000,-28,-23,26
10179,745,-46,3994,-1,-41,16
10189,824,-3,4022,3,-38,-2
10199,854,58,4002,-22,-2,6
10209,773,9,3969,1,-2,-2
10219,732,-114,3976,40,-17,-17
10229,736,-130,4003,37,-18,-41
10239,798,34,4017,20,5,-25
10249,713,5,4019,-2,31,29
10259,611,-160,4026,3,16,43
10269,569,-184,4015,-4,-13,0
10280,631,-23,4026,-2,-42,-39
10290,698,57,4037,14,-40,-39
10300,702,-7,4062,2,-27,-10
10310,725,61,4026,11,-39,-10
10320,748,-17,4034,-2,-32,-2
10330,754,-41,4025,-10,-19,31
10340,738,30,3975,9,-22,23
10350,686,-148,4009,24,-34,29
10360,706,-112,3987,10,-40,14
10370,720,-60,3997,18,-45,2
10380,777,-77,4044,30,-41,-25
10390,772,-46,4041,10,-25,-33
10400,755,-33,4044,3,-13,-39
10410,745,-60,4044,16,-17,-29
10420,740,-50,4031,19,-18,-19
10430,722,-30,3992,33,-17,-20
10440,719,-112,4015,18,-13,-13
10450,713,-40,3990,5,-11,-33
10460,732,3,3997,8,-8,-16
10470,726,-25,3996,6,-9,-15
10480,696,-52,3989,-1,-9,-20
10490,767,24,4011,-11,6,-8
10500,716,35,4018,-38,10,15
10510,769,84,4013,3,-12,0
10520,751,17,4013,-13,-13,5
10531,762,-1,4007,-11,-16,9
10541,758,-24,4039,11,-27,11
10551,751,-86,4051,7,-24,24
10561,724,-108,4017,4,-23,-4
10571,764,1,4002,1,-25,-23
10581,797,19,4005,16,-35,-28
10591,849,108,4035,1,-13,-19
10601,864,120,4017,-12,1,1
10611,777,14,3979,-5,-1,8
10621,724,-76,3987,33,-39,-40
10631,705,-101,3990,10,-31,-38
10641,748,-3,3999,21,-40,-50
10651,790,48,4017,14,-32,-31
10661,825,67,4032,-14,-11,6
10671,760,18,4014,-16,-12,8
10681,725,-126,4034,1,-24,-1
10691,745,-68,4022,-15,-21,-17
10701,822,86,4000,-8,-17,-29
10711,822,62,4012,-23,-6,-9
10721,788,-1,4001,3,-9,-6
10731,735,-121,4004,3,-14,-6
10741,748,-99,4012,21,-34,-27
10751,773,45,3993,20,-27,-31
10761,756,48,4018,22,-25,-25
10771,708,-62,4014,13,-30,-12
10782,754,26,4006,-3,-23,-11
10792,763,-14,4024,-13,-18,-3
10802,800,-1,4018,-14,-28,-10
10812,815,49,4016,2,-19,-7
10822,793,-8,4028,17,-13,22
10832,788,-33,4006,10,-6,15
10842,804,-53,3996,-3,4,7
10852,777,12,4024,-16,19,26
10862,718,-48,3978,-11,14,37
10872,659,-116,4014,11,-14,21
10882,731,-50,4024,7,-20,-1
10892,739,20,4031,5,-18,-5
10902,763,99,4029,13,-21,-9
10912,763,-1,4026,-17,4,-7
10922,737,49,4003,-4,-12,-20
10932,747,-11,3996,21,-30,-3
10942,785,8,4023,51,-53,-24
