t_ms,ax,ay,az,gx,gy,gz
0,1863,41,3538,-50,-114,-324
10,2086,-98,3513,-25,-57,-323
20,2138,-177,3566,19,48,-298
30,2039,-147,3666,58,122,-277
40,1920,-132,3698,111,144,-286
50,1869,-122,3742,128,123,-307
60,1888,-49,3731,105,85,-299
70,1956,62,3691,69,57,-307
80,2010,79,3670,53,62,-328
90,2035,58,3611,35,78,-318
100,2033,-34,3559,41,92,-306
110,2020,-56,3616,44,96,-287
120,1985,-2,3606,30,90,-272
130,1985,81,3619,-11,80,-260
140,1969,171,3612,-50,72,-249
150,1937,179,3571,-89,65,-253
160,1903,185,3548,-130,55,-244
170,1898,158,3433,-140,32,-231
180,1871,116,3387,-80,27,-232
190,1900,88,3425,-43,24,-213
200,1900,101,3453,-21,5,-193
210,1911,171,3497,-18,0,-200
220,1900,255,3527,-58,-1,-188
230,1850,311,3557,-131,5,-177
240,1801,295,3544,-194,-17,-174
250,1795,178,3514,-220,-40,-184
260,1821,72,3530,-220,-64,-177
270,1851,58,3509,-204,-72,-174
280,1899,82,3499,-173,-64,-184
290,1910,63,3471,-153,-42,-186
300,1881,87,3430,-143,-16,-174
310,1851,123,3412,-154,4,-171
320,1810,154,3390,-186,11,-170
330,1780,189,3381,-233,18,-164
340,1744,197,3379,-301,9,-155
350,1687,185,3346,-352,-8,-161
360,1710,128,3355,-403,-20,-178
370,1722,135,3299,-436,-46,-201
380,1789,125,3244,-474,-63,-237
390,1831,137,3159,-519,-59,-283
400,1882,177,3060,-585,-30,-310
410,1856,237,2970,-675,-7,-334
420,1798,262,2912,-778,-3,-375
430,1769,255,2762,-908,-11,-422
440,1799,268,2633,-1059,-27,-467
450,1870,318,2537,-1242,-42,-508
460,1888,355,2368,-1425,-28,-572
470,1838,231,2450,-1523,-42,-690
480,1852,2,2795,-1541,-72,-832
490,2002,-192,3149,-1567,-96,-943
500,2211,-271,3400,-1639,-73,-1025
510,2377,-313,3452,-1799,9,-1134
520,2461,-292,3248,-2053,170,-1253
530,2411,-199,3249,-2466,345,-1353
540,2275,75,3067,-2977,520,-1432
550,2122,294,2841,-3464,679,-1525
560,1991,208,2696,-3985,810,-1625
570,1893,-90,2756,-4585,944,-1683
580,1846,-363,2932,-5208,1102,-1668
590,1709,-541,3090,-5737,1246,-1670
600,1492,-774,3461,-6149,1344,-1711
610,1309,-1189,3956,-6491,1427,-1734
620,1365,-1779,4099,-6946,1466,-1695
630,1586,-2411,3839,-7384,1615,-1628
640,1797,-2924,3411,-7723,1826,-1570
650,1769,-3386,2787,-7808,1980,-1568
660,1642,-3830,2106,-7571,2056,-1548
670,1551,-4241,1804,-7020,2128,-1490
680,1479,-4545,1465,-6368,2155,-1412
690,1383,-4825,1098,-5597,2198,-1327
700,1366,-5179,1270,-4633,2203,-1233
710,1477,-5449,1253,-3866,2160,-1167
720,1590,-5407,1373,-3179,2131,-1080
730,1601,-5069,1400,-2686,2003,-974
740,1507,-4482,1264,-2376,1842,-833
750,1396,-3879,1263,-2235,1663,-671
760,1371,-3456,1153,-2297,1501,-497
770,1377,-3279,935,-2427,1353,-358
780,1306,-3419,382,-2394,1173,-280
790,1342,-3911,61,-2193,1039,-297
800,1387,-4389,-9,-1861,913,-308
810,1382,-4451,30,-1372,814,-298
820,1371,-4151,112,-846,713,-314
830,1427,-3779,399,-500,602,-341
840,1531,-3456,658,-457,512,-321
850,1706,-3248,857,-679,443,-286
860,1896,-3113,717,-1043,385,-267
870,2010,-3209,406,-1326,322,-270
880,2151,-3581,385,-1466,260,-296
890,2270,-3921,53,-1474,146,-278
900,2428,-3997,-191,-1314,80,-253
910,2536,-3864,-314,-1152,19,-228
920,2660,-3615,-246,-1015,1,-206
930,2681,-3529,-40,-891,-38,-189
940,2665,-3586,71,-754,-90,-149
950,2620,-3692,104,-596,-156,-80
960,2540,-3754,84,-407,-230,-22
970,2414,-3694,39,-201,-292,35
980,2305,-3602,13,-16,-340,59
990,2286,-3515,3,75,-350,63
1000,2202,-3501,-23,99,-363,46
1010,2067,-3474,-139,119,-387,13
1020,1971,-3362,-115,126,-387,-10
1030,1847,-3260,55,150,-382,-45
1040,1856,-3187,241,100,-358,-66
1050,1814,-3151,408,-25,-347,-71
1060,1823,-3148,435,-178,-324,-53
1070,1792,-3285,491,-329,-295,-61
1080,1791,-3410,389,-429,-275,-73
1090,1811,-3607,234,-440,-253,-105
1100,1815,-3734,134,-425,-227,-140
1110,1825,-3684,53,-402,-180,-151
1120,1833,-3605,84,-356,-148,-171
1130,1897,-3582,180,-355,-98,-185
1140,1938,-3584,315,-406,-62,-198
1150,1937,-3637,354,-450,-54,-193
1160,1958,-3748,419,-484,-54,-159
1171,2008,-3809,509,-553,-68,-122
1181,2097,-3707,319,-631,-83,-69
1191,2165,-3632,138,-706,-89,-42
1201,2154,-3691,-110,-764,-105,-23
1211,2143,-3837,-260,-700,-90,-21
1221,2130,-4061,-152,-503,-83,-34
1231,2139,-4077,-124,-287,-76,-15
1241,2120,-3920,13,-90,-84,-5
1251,2094,-3687,42,16,-97,14
1261,2053,-3530,74,24,-118,24
1271,2011,-3483,68,9,-149,19
1281,1987,-3532,81,-24,-178,25
1291,1999,-3513,75,-69,-192,36
1301,1972,-3500,-11,-112,-211,27
1311,1890,-3466,-92,-136,-224,8
1321,1870,-3499,-43,-135,-213,-15
1331,1881,-3511,-33,-144,-206,-23
1341,1857,-3510,-27,-129,-186,-31
1351,1819,-3534,58,-118,-173,-48
1361,1820,-3515,70,-123,-154,-54
1372,1838,-3441,87,-132,-142,-54
1382,1804,-3379,23,-141,-144,-58
1392,1793,-3420,-37,-172,-129,-68
1402,1855,-3470,-29,-208,-88,-71
1412,1858,-3489,-103,-254,-86,-73
1422,1823,-3474,-188,-258,-81,-81
1432,1842,-3511,-171,-244,-66,-97
1442,1874,-3539,-94,-245,-41,-110
1452,1864,-3589,-110,-218,-41,-117
1462,1859,-3605,-74,-202,-40,-123
1472,1880,-3633,-134,-170,-45,-127
1482,1879,-3578,-155,-148,-56,-119
1492,1854,-3525,-174,-136,-60,-125
1502,1843,-3534,-256,-133,-60,-118
1512,1860,-3556,-222,-123,-52,-118
1522,1846,-3585,-151,-95,-42,-129
1532,1875,-3596,-126,-97,-46,-129
1542,1880,-3634,-92,-101,-48,-116
1552,1920,-3652,-111,-124,-48,-105
1562,1932,-3641,-114,-145,-55,-92
1573,1928,-3600,-168,-157,-61,-78
1583,1933,-3592,-202,-193,-47,-66
1593,1916,-3585,-269,-203,-39,-59
1603,1930,-3629,-260,-175,-28,-53
1613,1920,-3665,-236,-118,-23,-46
1623,1924,-3633,-174,-55,-27,-31
1633,1930,-3572,-178,0,-20,-23
1643,1925,-3536,-148,22,-28,-11
1653,1933,-3480,-147,25,-29,-6
1663,1913,-3483,-162,11,-28,7
1673,1914,-3487,-143,-14,-30,12
1683,1917,-3480,-193,-42,-35,12
1693,1892,-3492,-206,-79,-24,7
1703,1876,-3526,-239,-103,-7,4
1713,1871,-3579,-270,-117,14,-4
1723,1878,-3593,-249,-150,37,-13
1733,1899,-3588,-205,-166,56,-20
1743,1914,-3550,-210,-182,58,-23
1753,1903,-3556,-194,-185,59,-25
1763,1921,-3589,-172,-168,54,-24
1774,1932,-3565,-234,-183,41,-16
1784,1879,-3505,-321,-193,26,-9
1794,1861,-3459,-345,-177,23,-10
1804,1875,-3470,-278,-155,17,-17
1814,1897,-3464,-283,-158,19,-7
1824,1940,-3462,-300,-138,16,-10
1834,1942,-3506,-313,-106,2,-17
1844,1943,-3543,-315,-62,-5,-26
1854,1974,-3560,-283,-16,-14,-19
1864,1977,-3534,-268,-12,-28,-19
1874,1986,-3456,-339,-40,-28,-11
1884,2000,-3411,-351,-53,-13,-7
1894,1995,-3452,-342,-69,-5,-13
1904,2035,-3555,-352,-61,11,-9
1914,2039,-3561,-296,-15,12,-5
1924,2013,-3536,-232,34,9,-5
1934,2014,-3507,-265,53,9,-2
1944,1991,-3465,-260,58,1,-3
1954,1997,-3486,-229,51,-4,-8
1964,2007,-3523,-273,21,-15,-14
1975,2007,-3490,-332,-18,-25,-17
1985,1995,-3422,-350,-43,-26,-23
1995,1981,-3413,-357,-67,-20,-27
2005,2008,-3432,-299,-75,-4,-30
2015,2008,-3476,-284,-61,-4,-29
2025,1982,-3531,-249,-30,-11,-29
2035,1985,-3538,-228,5,-10,-19
2045,1987,-3527,-249,48,-11,-13
2055,1979,-3523,-232,63,-19,-11
2065,1956,-3510,-197,79,-17,-12
2075,1955,-3507,-269,91,-26,-11
2085,1936,-3468,-234,80,-26,-18
2095,1953,-3414,-302,45,-26,-22
2105,1946,-3409,-336,7,-16,-26
2115,1955,-3450,-295,-18,-7,-35
2125,1968,-3493,-278,-35,-1,-35
2135,1991,-3520,-227,-33,2,-38
2145,1973,-3542,-184,-27,-2,-41
2155,1954,-3556,-199,-21,-6,-36
2165,1961,-3574,-193,-8,-7,-28
2175,1968,-3562,-232,4,-12,-15
2185,1977,-3516,-276,15,-21,-16
2195,1984,-3500,-287,20,-18,-19
2205,2015,-3483,-338,9,-10,-9
2215,1991,-3458,-351,21,-10,-15
2226,1991,-3460,-306,44,-10,-17
2236,1987,-3482,-248,57,-10,-19
2246,1990,-3480,-216,66,-17,-26
2256,1989,-3478,-189,68,-27,-21
2266,1984,-3464,-220,45,-31,-25
2276,1968,-3444,-209,28,-38,-28
2286,1963,-3460,-272,14,-39,-33
2296,1980,-3462,-256,14,-39,-40
2306,2000,-3451,-207,14,-37,-48
2316,2033,-3404,-258,-10,-39,-42
2326,2040,-3370,-238,-16,-37,-44
2336,2016,-3409,-268,-25,-31,-42
2346,2019,-3473,-233,-24,-21,-38
2356,1995,-3500,-219,1,-15,-37
2366,2003,-3491,-186,25,-17,-31
2376,1999,-3508,-159,25,-18,-25
2386,2013,-3507,-133,23,-15,-22
2396,2030,-3498,-191,7,-29,-22
2406,2041,-3457,-269,-12,-31,-22
2416,2030,-3464,-306,-31,-33,-27
2426,2028,-3479,-320,-54,-27,-25
2436,2048,-3495,-291,-45,-18,-24
2446,2052,-3485,-250,-20,-10,-23
2456,2029,-3477,-242,4,-7,-17
2466,1991,-3489,-183,21,-7,-13
2477,1969,-3511,-177,27,-15,-13
2487,1979,-3561,-154,32,-22,-16
2497,1949,-3521,-203,29,-39,-9
2507,1946,-3462,-225,20,-45,-8
2517,1989,-3418,-293,8,-43,-5
2527,2002,-3441,-323,-7,-28,-2
2537,1989,-3463,-307,-1,-15,0
2547,1987,-3534,-234,23,-12,-2
2557,1985,-3573,-189,47,-7,12
2567,1992,-3548,-188,61,-22,16
2577,1973,-3495,-187,60,-35,12
2587,1982,-3492,-241,39,-38,13
2597,2003,-3509,-290,24,-31,15
2607,2011,-3531,-282,16,-27,10
2617,2022,-3520,-246,7,-16,10
2627,2025,-3506,-261,8,-15,10
2637,2008,-3464,-280,-13,-12,16
2647,1969,-3459,-281,-16,-13,22
2657,1989,-3467,-261,-13,-10,23
2667,2003,-3494,-226,-9,-6,33
2677,2033,-3476,-224,-8,-10,35
2687,2048,-3441,-245,-2,-12,44
2697,2063,-3442,-279,-9,-5,45
2707,2058,-3474,-303,-10,0,42
2717,2036,-3465,-309,-4,-4,39
2728,2022,-3467,-265,8,-2,30
2738,1999,-3418,-251,7,-12,22
2748,1993,-3425,-269,5,-19,17
2758,1991,-3456,-240,-16,-17,9
2768,1992,-3469,-264,-26,-22,13
2778,1991,-3465,-234,-45,-31,5
2788,1984,-3432,-259,-64,-42,9
2798,2000,-3411,-286,-76,-42,7
2808,1995,-3454,-290,-64,-47,13
2818,1979,-3495,-299,-44,-51,7
2828,1972,-3542,-268,1,-50,9
2838,1983,-3547,-242,33,-42,20
2848,1996,-3524,-246,50,-42,25
2858,1995,-3519,-248,41,-42,21
2868,1994,-3514,-254,26,-45,26
2878,2005,-3522,-287,4,-44,26
2888,2012,-3545,-322,-22,-45,29
2898,1995,-3558,-337,-26,-39,26
2908,1997,-3578,-307,-26,-32,38
2918,2010,-3585,-253,-22,-17,58
2928,1996,-3552,-227,-19,-19,67
2938,1989,-3535,-190,-14,-23,76
2948,2006,-3516,-235,-11,-31,82
2958,2011,-3538,-264,-36,-37,86
2968,2014,-3566,-336,-40,-41,91
2979,2020,-3564,-361,-31,-43,82
2989,2004,-3518,-346,-22,-45,85
2999,1981,-3490,-335,-13,-48,86
3009,1967,-3452,-337,-25,-62,76
3019,1935,-3442,-318,-34,-74,67
3029,1947,-3421,-334,-31,-83,61
3039,1941,-3414,-327,-41,-87,59
3049,1957,-3388,-359,-55,-87,57
3059,1955,-3398,-380,-46,-84,43
3069,1949,-3437,-325,-27,-81,36
3079,1976,-3473,-325,-29,-77,34
3089,1952,-3498,-314,-23,-78,30
3099,1925,-3478,-291,-27,-79,28
3109,1933,-3456,-266,-16,-83,29
3119,1929,-3461,-303,-22,-91,19
3129,1929,-3471,-338,-24,-95,20
3139,1914,-3479,-372,-14,-94,12
3150,1905,-3475,-347,-12,-92,3
3160,1897,-3472,-313,-2,-74,-8
3170,1835,-3479,-307,12,-83,-17
3180,1852,-3525,-268,22,-72,-16
3190,1868,-3558,-286,17,-65,-16
3200,1883,-3584,-327,1,-53,-14
3210,1884,-3602,-345,-16,-41,-22
3220,1911,-3618,-336,-33,-35,-20
3230,1898,-3641,-339,-51,-28,-13
3240,1880,-3641,-297,-54,-16,-6
3250,1891,-3639,-307,-85,-3,8
3260,1879,-3626,-363,-128,3,18
3270,1854,-3671,-364,-198,10,9
3280,1859,-3700,-408,-326,11,22
3290,1856,-3741,-495,-439,5,16
3300,1800,-3907,-517,-490,-10,8
3310,1747,-4009,-411,-476,-7,10
3321,1686,-3929,-186,-443,15,43
3331,1638,-3722,48,-466,46,91
3341,1656,-3634,96,-528,74,129
3351,1780,-3700,263,-666,128,174
3361,1870,-3521,-68,-834,181,185
3371,1847,-3437,-85,-944,259,166
3381,1856,-3536,-235,-999,311,175
3391,1848,-3562,-341,-1034,333,170
3401,1948,-3494,-512,-1050,376,158
3411,1988,-3577,-455,-999,405,164
3421,1992,-3761,-658,-885,407,182
3431,1986,-3903,-854,-668,386,197
3441,2098,-3780,-958,-555,333,174
3451,2076,-3630,-963,-429,276,161
3461,1954,-3605,-879,-398,190,154
3471,1773,-3414,-993,-336,74,162
3482,1862,-2821,-810,-502,23,136
3492,1940,-2556,-1229,-849,-6,59
3502,1780,-2943,-1036,-1186,-14,76
3512,1612,-2922,-1434,-1283,-5,20
3522,1758,-2951,-2065,-1158,-97,-56
3532,2255,-3231,-1545,-1162,-108,-105
3542,1943,-3304,-2336,-1144,-238,41
3552,2062,-3647,-2060,-710,-252,-23
3562,2231,-3976,-1929,-495,-380,44
3572,2805,-3625,-1505,-341,-140,18
3582,2390,-3293,-486,-19,-1,-28
3592,1996,-2461,171,-659,93,123
3602,2793,-2151,-241,-792,-90,83
3612,2780,-2502,-908,-1535,-234,135
3622,2573,-2834,-1246,-1643,-155,-38
3632,2377,-3115,-1058,-1221,-208,-64
3642,2521,-3064,-1410,-867,-284,1
3653,2705,-2830,-1944,-514,-342,-122
3663,2754,-2685,-2127,-241,-490,-216
3673,2615,-2503,-2166,-241,-571,-210
3683,2604,-2604,-2226,-275,-622,-245
3693,2770,-3070,-2300,-327,-657,-221
3703,2731,-3528,-2267,-380,-720,-248
3713,2708,-3653,-2111,-334,-806,-253
3723,2727,-3213,-1868,-376,-868,-194
3733,2689,-2710,-1918,-428,-908,-235
3743,2681,-2614,-1831,-472,-963,-258
3753,2546,-2705,-1966,-494,-1034,-270
3763,2462,-2736,-1927,-325,-1093,-322
3773,2371,-2740,-1575,-171,-1175,-339
3783,2317,-2572,-1197,-54,-1211,-340
3793,2139,-2380,-590,-101,-1283,-381
3803,2035,-2466,-624,16,-1288,-435
3813,1976,-3037,-560,178,-1234,-392
3824,1868,-3708,-865,284,-1112,-358
3834,1669,-4250,-1039,335,-1062,-323
3844,1458,-4531,-903,70,-1056,-217
3854,1184,-4376,-1621,-213,-947,-270
3864,1030,-4316,-1740,-30,-849,-292
3874,636,-3999,-2084,-328,-691,-164
3884,381,-3512,-2291,-726,-701,-209
3894,196,-3258,-2626,-946,-762,-349
3904,208,-3214,-2981,-1176,-848,-423
3914,148,-3259,-3483,-1517,-905,-474
3924,141,-3273,-3777,-1586,-949,-498
3934,121,-3168,-3769,-1665,-994,-471
3944,128,-3123,-3790,-1565,-1103,-488
3954,199,-3291,-3858,-1232,-1220,-550
3964,242,-3548,-3737,-831,-1362,-586
3974,296,-3465,-3202,-480,-1416,-683
3985,333,-2755,-3756,207,-1537,-884
3995,406,-2165,-4510,1208,-1546,-919
4005,161,-1043,-3782,834,-1601,-606
4015,328,1353,-2800,-389,-1870,-1023
4025,1868,1914,-3206,-150,-2070,-1685
4035,2242,-115,-3640,-40,-2161,-1475
4045,2247,-1875,-4028,-109,-2070,-1454
4055,2380,-3347,-3832,660,-1986,-1610
4065,2327,-4202,-2825,1134,-1760,-1434
4075,1713,-3888,-2785,1029,-1616,-1171
4085,1182,-3164,-2943,1127,-1696,-1074
4095,1040,-2628,-3064,1103,-1797,-1007
4105,1208,-2274,-3008,679,-1877,-868
4115,1470,-2124,-3061,206,-1896,-782
4125,1604,-2265,-3195,-68,-1821,-743
4135,1565,-2501,-3160,-144,-1682,-662
4145,1405,-2712,-3029,-34,-1557,-529
4155,1214,-2755,-3222,65,-1497,-438
4165,1129,-2692,-3468,202,-1481,-382
4175,1234,-2635,-3565,212,-1509,-348
4185,1423,-2481,-3387,71,-1529,-328
4195,1552,-2327,-3283,-53,-1546,-358
4205,1508,-2379,-3226,-60,-1548,-355
4215,1347,-2584,-3221,24,-1527,-351
4225,1327,-2707,-3197,317,-1540,-338
4236,1460,-2817,-2911,672,-1527,-311
4246,1665,-2965,-2696,961,-1516,-325
4256,1851,-3011,-2364,1229,-1469,-343
4266,1806,-2972,-2202,1455,-1402,-331
4276,1593,-3048,-2253,1663,-1351,-320
4286,1524,-3368,-2123,1842,-1389,-300
4296,1596,-3813,-2008,1910,-1399,-259
4306,1582,-4103,-2028,2049,-1329,-248
4316,1563,-4214,-2125,2214,-1295,-239
4326,1567,-4170,-2004,2313,-1193,-194
4336,1379,-3877,-1964,2176,-1144,-163
4346,1208,-3491,-2158,1912,-1179,-172
4356,1311,-3361,-2103,1742,-1300,-272
4366,1589,-3778,-1713,1781,-1326,-320
4376,1628,-4122,-1272,1874,-1327,-403
4386,1633,-4328,-920,2068,-1239,-459
4396,1691,-4591,-195,2076,-1086,-465
4406,1705,-4737,530,1854,-856,-451
4416,1674,-4667,1378,1598,-679,-392
4426,1585,-4350,2101,1616,-353,-338
4436,1372,-3920,1981,1811,85,-282
4446,920,-3398,1752,2046,681,-193
4456,384,-3117,1767,2456,1045,-46
4466,80,-3160,2734,2702,1446,81
4476,227,-2690,4656,2616,1924,183
4487,317,-1599,5264,2320,2385,35
4497,246,-813,5397,1786,2973,-372
4507,118,-792,5055,818,3606,-569
4517,-13,-1596,4040,122,4108,-536
4527,-24,-2886,2859,344,4499,-489
4537,356,-4027,2252,1408,4858,-713
4547,794,-4234,1502,3283,4874,-1073
4557,1127,-3495,800,5585,4899,-1539
4567,1471,-2515,793,7275,4923,-2129
4577,1780,-2166,1186,7739,4687,-2432
4587,2389,-2951,1711,7118,4546,-2689
4597,3164,-4715,1901,6384,4224,-2973
4607,3360,-6121,1673,6053,3581,-3080
4617,3388,-6503,1251,6130,2848,-3064
4627,3298,-6039,752,6075,2147,-2949
4637,3425,-5361,816,5646,1607,-2743
4647,3696,-5023,481,4839,1144,-2469
4657,3952,-4979,288,3972,739,-2282
4667,3622,-4857,65,3411,330,-2060
4677,3230,-4472,76,3126,8,-1936
4687,3205,-4009,438,3102,-258,-1739
4697,3131,-3691,916,3102,-436,-1511
4707,2990,-3850,1394,3178,-627,-1348
4717,3095,-3978,1838,2991,-818,-1256
4727,3401,-3600,1546,2647,-975,-1205
4738,3775,-2705,1681,2003,-974,-1234
4748,3910,-1949,1716,1467,-944,-1219
4758,3864,-1763,1370,1073,-950,-1132
4768,3907,-1867,1365,810,-885,-1053
4778,3831,-1967,1615,666,-788,-989
4788,3680,-2030,1849,675,-757,-958
4798,3726,-1980,1971,667,-670,-947
4808,3682,-1655,2118,462,-601,-887
4818,3424,-1316,2277,263,-549,-856
4828,3220,-1339,2469,114,-511,-766
4838,3082,-1367,2385,5,-470,-699
4848,3097,-1404,2371,113,-391,-676
4858,3185,-1201,2382,24,-290,-637
4868,3143,-751,2490,-27,-151,-634
4878,2959,-317,2725,-194,-97,-708
4888,2865,224,2779,-435,-29,-857
4898,2776,174,2773,-490,-23,-941
4908,2908,-199,2909,-509,-21,-989
4918,3174,-569,2845,-482,-84,-943
4928,3392,-805,3486,-1006,12,-737
4938,3227,-568,3545,-2028,172,-851
4948,3141,-673,3355,-2653,368,-893
4958,3331,-1076,3331,-3087,563,-833
4968,3275,-1138,2823,-3044,658,-830
4978,2954,-1056,3174,-3044,768,-818
4989,3116,-1406,2131,-3128,652,-576
4999,3280,-1495,1597,-3396,686,-588
5009,3652,-1198,1372,-3191,619,-795
5019,3737,-1304,1285,-2668,513,-759
5029,3915,-1607,1165,-2215,474,-620
5039,4261,-1635,1147,-1830,392,-483
5049,4403,-1444,1135,-1630,322,-386
5059,4475,-1455,1177,-1545,225,-394
5069,4544,-1465,980,-1665,225,-308
5079,4408,-1805,435,-1622,122,-159
5089,4488,-2017,270,-1515,89,47
5099,4262,-2334,-83,-1231,-49,196
5109,3902,-2541,-651,-752,-232,345
5119,3811,-2673,-460,2,-371,464
5129,3703,-1973,-354,336,-545,458
5139,3708,-1307,429,-24,-609,494
5149,3337,-1584,-11,-44,-776,622
5159,3389,-2607,609,56,-867,823
5169,3723,-3721,1380,328,-769,831
5179,2609,-3615,-29,1208,-1270,1032
5190,2893,-1767,-330,1664,-1503,993
5200,3658,-334,132,792,-1499,936
5210,3407,-253,-282,71,-1517,783
5220,2868,-1910,354,-4,-1590,954
5230,2616,-3278,531,-79,-1818,1021
5240,2810,-3431,717,-120,-1992,974
5250,2836,-2879,925,-82,-2191,863
5260,3032,-2200,997,-430,-2297,687
5270,3141,-1795,1079,-1128,-2291,701
5280,2944,-1814,693,-1800,-2360,680
5290,2902,-2235,247,-2350,-2417,658
5300,2797,-2890,-522,-2551,-2530,654
5310,2762,-3484,-1126,-2449,-2615,549
5320,2858,-3878,-1931,-2040,-2801,447
5330,3060,-4323,-2348,-1283,-2887,474
5340,3283,-4654,-2130,-616,-2887,532
5350,3490,-4762,-1670,-175,-2864,547
5360,3800,-4635,-1029,199,-2750,468
5370,3897,-4084,-680,569,-2724,375
5380,3909,-3343,-599,860,-2677,290
5391,3916,-2754,-331,921,-2640,322
5401,3831,-2367,-157,520,-2598,405
5411,3727,-2157,-427,-72,-2514,473
5421,3591,-2494,-837,-375,-2487,536
5431,3509,-3224,-745,-548,-2441,606
5441,3357,-3694,-746,-668,-2439,633
5451,3266,-3790,-655,-509,-2421,584
5461,3238,-3677,-394,-186,-2482,575
5471,3179,-3383,-81,79,-2527,575
5481,3253,-3077,-1,215,-2556,594
5491,3296,-3030,-65,257,-2534,647
5501,3318,-3264,-217,139,-2496,743
5511,3280,-3406,-468,-26,-2458,823
5521,3211,-3460,-610,-136,-2457,854
5531,3209,-3333,-748,-279,-2510,846
5541,3308,-3161,-824,-426,-2573,873
5551,3364,-2909,-950,-657,-2607,874
5561,3359,-2386,-936,-898,-2579,794
5571,3167,-1873,-1014,-977,-2457,683
5581,2798,-1725,-996,-1022,-2288,534
5592,2273,-2242,-1300,-882,-2287,514
5602,1943,-3339,-1751,-670,-2477,520
5612,2158,-4224,-2175,-383,-2774,564
5622,2566,-4366,-2631,111,-2922,599
5632,3077,-3962,-2645,625,-2882,516
5642,3404,-2987,-2634,844,-2717,439
5652,3392,-1858,-2722,710,-2543,358
5662,3328,-1267,-2269,223,-2240,412
5672,2878,-1651,-2295,-195,-2148,435
5682,2494,-2322,-1981,-417,-2065,440
5692,2285,-2620,-1260,-477,-1994,446
5702,2309,-2976,-1150,-489,-1993,467
5712,2319,-3625,-1281,-345,-2015,573
5722,2305,-3493,-987,-416,-1964,529
5732,2326,-2580,-1131,-517,-1902,389
5742,2125,-1936,-1229,-545,-1781,318
5752,1808,-1847,-1344,-683,-1725,258
5762,1456,-1916,-1471,-928,-1707,216
5772,1313,-2410,-1682,-994,-1812,121
5782,1447,-3265,-2030,-804,-1876,92
5793,1746,-3777,-2257,-536,-1877,80
5803,2118,-3746,-2285,-242,-1782,9
5813,2210,-3628,-2258,180,-1666,-83
5823,2160,-3151,-1695,357,-1399,-204
5833,2054,-2713,-1530,448,-1329,-166
5843,1851,-2604,-1405,282,-1323,-27
5853,1608,-2522,-1464,169,-1322,-73
5863,1513,-2558,-1705,188,-1323,-125
5873,1372,-2756,-1863,285,-1310,-90
5883,1232,-2930,-1939,480,-1289,-127
5893,1098,-3082,-1913,685,-1246,-130
5903,935,-3015,-2042,760,-1233,-135
5913,884,-2938,-1970,846,-1224,-105
5923,895,-2730,-1781,866,-1187,-108
5933,1084,-2718,-1543,823,-1154,-81
5943,1056,-2783,-1472,724,-1079,-6
5953,959,-2898,-1468,634,-1027,-4
5963,863,-3089,-1654,622,-969,-5
5973,759,-3404,-1865,714,-931,42
5983,714,-3838,-2024,850,-905,99
5994,691,-3968,-2039,1014,-825,149
6004,680,-3650,-1919,1167,-732,156
6014,689,-3168,-1790,1211,-639,158
6024,673,-2849,-1692,1142,-587,167
6034,614,-2832,-1662,1056,-573,170
6044,617,-3037,-1718,970,-556,170
6054,605,-3272,-1740,942,-503,167
6064,681,-3522,-1547,951,-452,148
6074,766,-3620,-1563,916,-368,150
6084,808,-3590,-1561,843,-266,145
6094,872,-3429,-1612,687,-182,121
6104,875,-3113,-1749,514,-105,116
6114,880,-2895,-1599,313,-38,72
6124,966,-2898,-1661,190,-6,29
6134,1052,-3286,-1690,154,32,22
6144,1127,-3762,-1719,38,45,56
6154,1216,-4021,-1944,-48,62,7
6164,1324,-4050,-2155,-36,102,-104
6174,1455,-3994,-2190,-21,192,-167
6184,1441,-3940,-2118,-37,300,-174
6195,1307,-3919,-2069,-68,391,-191
6205,1198,-3905,-1824,-95,446,-203
6215,1141,-3786,-1744,-94,439,-174
6225,1201,-3662,-1707,-61,426,-134
6235,1218,-3569,-1650,-66,443,-99
6245,1174,-3505,-1587,-68,464,-119
6255,1109,-3423,-1601,-120,480,-145
6265,1000,-3406,-1622,-149,479,-148
6275,911,-3532,-1632,-152,449,-150
6285,855,-3655,-1779,-94,440,-158
6295,867,-3687,-1819,45,436,-162
6305,935,-3551,-1760,155,437,-138
6315,993,-3360,-1712,189,456,-146
6325,1066,-3236,-1790,205,451,-181
6335,1114,-3280,-1831,206,463,-197
6345,1123,-3460,-1886,206,443,-202
6355,1146,-3521,-1834,209,438,-212
6365,1220,-3485,-1851,235,409,-221
6375,1312,-3473,-1858,258,415,-220
6385,1357,-3546,-1864,269,422,-204
6396,1419,-3532,-1819,243,459,-198
6406,1532,-3462,-1774,231,517,-164
6416,1525,-3281,-1466,119,625,-116
6426,1397,-3099,-1770,89,629,-141
6436,1370,-3290,-1674,120,647,-119
6446,1354,-3298,-1639,36,676,-68
6456,1275,-3215,-1696,98,699,-73
6466,1286,-3244,-1655,152,682,-82
6476,1391,-3239,-1690,97,704,-56
6486,1497,-3222,-1678,44,723,-34
6496,1515,-3130,-1740,-22,786,-43
6506,1514,-3137,-1726,-39,860,-51
6516,1405,-3127,-1700,-112,933,-29
6526,1301,-3109,-1683,-151,939,-45
6536,1245,-3156,-1691,-120,938,-66
6546,1270,-3224,-1504,-76,953,-50
6556,1287,-3287,-1376,-66,960,-21
6566,1409,-3438,-1454,-42,955,4
6576,1551,-3537,-1436,-70,1002,39
6586,1647,-3415,-1459,-180,1069,55
6597,1673,-3171,-1596,-281,1177,48
6607,1598,-3012,-1682,-346,1278,52
6617,1424,-2944,-1718,-446,1338,59
6627,1277,-2912,-1781,-520,1345,62
6637,1293,-2942,-1692,-534,1330,75
6647,1367,-3108,-1619,-494,1285,89
6657,1501,-3280,-1612,-478,1262,100
6667,1600,-3294,-1586,-468,1271,81
6677,1667,-3201,-1579,-437,1323,42
6687,1651,-3131,-1533,-403,1405,43
6697,1568,-3101,-1440,-450,1456,66
6707,1533,-3054,-1424,-529,1471,75
6717,1573,-3037,-1491,-592,1456,63
6727,1707,-3115,-1510,-642,1469,45
6737,1817,-3168,-1529,-723,1498,30
6747,1918,-3209,-1575,-762,1529,-15
6757,1985,-3303,-1678,-774,1589,-60
6767,2005,-3511,-1692,-781,1661,-95
6777,2015,-3658,-1774,-890,1695,-100
6787,2004,-3641,-1791,-1047,1723,-113
6798,1941,-3526,-1769,-1165,1710,-156
6808,1852,-3458,-1786,-1291,1691,-162
6818,1731,-3463,-1859,-1392,1638,-151
6828,1629,-3511,-1953,-1403,1555,-143
6838,1686,-3628,-1870,-1327,1458,-125
6848,1770,-3781,-1768,-1199,1372,-80
6858,1848,-3864,-1772,-1022,1305,-18
6868,1934,-3852,-1631,-869,1252,30
6878,2023,-3743,-1511,-731,1205,70
6888,2096,-3529,-1429,-660,1189,104
6898,2093,-3335,-1378,-640,1192,131
6908,2034,-3180,-1291,-662,1197,141
6918,1945,-3076,-1128,-683,1194,160
6928,1924,-3053,-986,-651,1203,155
6938,1906,-3134,-1091,-612,1198,170
6948,1832,-3204,-1246,-583,1203,196
6958,1798,-3241,-1301,-546,1175,196
6968,1800,-3308,-1390,-556,1157,195
6978,1789,-3337,-1603,-578,1138,207
6988,1780,-3372,-1692,-557,1132,219
6999,1783,-3471,-1744,-534,1100,241
7009,1824,-3546,-1592,-498,1072,266
7019,1855,-3422,-1379,-441,1059,296
7029,1835,-3154,-1148,-382,1080,322
7039,1809,-2896,-1062,-331,1079,338
7049,1764,-2898,-1049,-302,1060,365
7059,1724,-3036,-1094,-322,1029,366
7069,1724,-3118,-1214,-336,999,346
7079,1739,-3165,-1337,-336,972,339
7089,1739,-3212,-1514,-367,941,335
7099,1722,-3258,-1588,-369,916,335
7109,1767,-3335,-1663,-364,880,334
7119,1838,-3443,-1702,-335,863,348
7129,1905,-3459,-1696,-307,850,368
7139,1949,-3171,-1681,-327,861,385
7149,1932,-2817,-1616,-382,866,375
7159,1946,-2591,-1490,-528,836,357
7169,1923,-2575,-1495,-691,785,337
7179,1980,-2787,-1460,-770,705,295
7189,2129,-2959,-1366,-865,694,304
7200,2273,-3114,-1494,-965,682,320
7210,2399,-3278,-1499,-1160,687,339
7220,2469,-3272,-1810,-1339,692,354
7230,2524,-3208,-2076,-1397,688,367
7240,2502,-3117,-2342,-1435,631,404
7250,2508,-3152,-2398,-1418,575,400
7260,2537,-3218,-2306,-1390,537,418
7270,2561,-3246,-2080,-1295,510,464
7280,2542,-3169,-1680,-1248,512,462
7290,2599,-2925,-1513,-1204,554,428
7300,2628,-2828,-1558,-1143,596,414
7310,2414,-3090,-2023,-1009,625,389
7320,2344,-2938,-1952,-1128,791,309
7330,2840,-2619,-2163,-950,745,308
7340,3152,-2535,-2368,-1098,882,329
7350,3099,-2779,-2520,-1213,964,297
7360,2895,-2970,-1958,-1150,973,317
7370,2820,-2818,-1508,-1138,865,367
7380,2607,-2734,-1163,-1136,755,432
7390,2375,-2713,-1369,-1121,626,444
7401,2493,-2934,-1636,-1220,622,485
7411,2508,-2895,-2000,-1110,626,492
7421,2495,-2642,-2015,-895,520,380
7431,2599,-2122,-1675,-408,654,179
7441,2882,-1608,-1380,-35,736,-15
7451,3037,-1359,-1054,388,859,-169
7461,3350,-1297,-1293,697,1032,-294
7471,3433,-1308,-1619,635,1074,-414
7481,3485,-1174,-1801,387,852,-559
7491,3882,-1080,-1956,298,753,-696
7501,4016,-1327,-2284,224,699,-833
7511,4013,-1793,-2566,227,671,-935
7521,3886,-2412,-2409,382,652,-1014
7531,3610,-2873,-2047,691,672,-1158
7541,3325,-2888,-1565,984,576,-1371
7551,3094,-2424,-1382,1240,450,-1558
7561,3025,-2063,-1749,1406,297,-1676
7571,3039,-2087,-2268,1385,250,-1754
7581,2975,-2336,-2538,1561,175,-1927
7591,3082,-2486,-2921,1930,-10,-2085
7602,3259,-2252,-3104,2256,-264,-2185
7612,3429,-2103,-3035,2675,-507,-2260
7622,3569,-2231,-3013,3162,-769,-2251
7632,3648,-2688,-2767,3706,-974,-2115
7642,3546,-3390,-2287,4262,-1197,-1899
7652,3277,-4163,-1669,4639,-1441,-1668
7662,2855,-4725,-1231,4862,-1664,-1429
7672,2349,-4966,-960,5067,-1789,-1168
7682,1835,-4976,-767,5339,-1805,-918
7692,1467,-4920,-698,5594,-1749,-635
7702,1171,-4850,-568,5719,-1633,-297
7712,899,-4821,-476,5726,-1462,91
7722,754,-4842,-260,5576,-1330,369
7732,731,-4888,-58,5297,-1227,589
7742,805,-4904,125,4966,-1142,797
7752,970,-4894,233,4610,-1040,961
7762,1105,-4778,87,4279,-922,1074
7772,1266,-4588,-114,3996,-781,1170
7782,1371,-4428,-147,3846,-631,1284
7792,1524,-4374,337,3658,-490,1431
7803,1615,-4250,728,3270,-365,1621
7813,1673,-4053,908,2827,-263,1742
7823,1747,-3917,1186,2398,-149,1816
7833,1767,-3785,1356,1976,-58,1907
7843,1742,-3723,1267,1703,24,1963
7853,1693,-3771,1103,1646,108,1987
7863,1676,-3885,945,1696,228,1976
7873,1645,-4019,778,1864,280,1918
7883,1688,-4194,952,2092,326,1837
7893,1839,-4274,1212,2292,361,1804
7903,1998,-4137,1381,2461,421,1764
7913,2096,-3724,1562,2531,500,1694
7923,2068,-3275,1563,2498,558,1579
7933,1965,-2943,1505,2367,602,1463
7943,1837,-2764,1348,2150,589,1366
7953,1745,-2789,1286,1969,549,1285
7963,1770,-2963,1245,1823,551,1200
7973,1855,-3253,1091,1696,549,1136
7983,1930,-3409,997,1567,582,1061
7993,1990,-3337,945,1518,602,950
8004,2076,-3197,1015,1497,650,796
8014,2080,-3019,1193,1408,696,656
8024,2076,-2876,1171,1278,737,522
8034,2089,-2827,1166,1153,754,394
8044,2101,-2730,1204,1050,719,285
8054,2138,-2647,1333,974,682,195
8064,2202,-2575,1406,848,668,95
8074,2233,-2550,1310,652,637,-23
8084,2267,-2474,1377,447,625,-111
8094,2396,-2376,1509,269,632,-201
8104,2545,-2292,1377,202,627,-347
8114,2691,-2328,1154,337,648,-544
8124,2809,-2386,1437,483,671,-677
8134,2778,-2289,1667,455,628,-730
8144,2736,-1929,1819,412,628,-794
8154,2768,-1560,2138,310,673,-856
8164,2751,-1395,2014,157,668,-892
8174,2761,-1502,2286,32,725,-911
8184,2872,-1823,2494,-151,725,-859
8194,3017,-2063,2500,-266,744,-784
8204,3119,-2188,2484,-198,724,-743
8214,3174,-2160,2588,-81,692,-731
8224,3080,-2004,2534,-17,592,-712
8234,2771,-1350,729,-37,258,-714
8244,3653,-1557,3232,431,853,-769
8255,3402,-1465,4275,-589,541,-330
8265,2544,-1604,2889,-710,383,-424
8275,2284,-2428,1976,-347,149,-543
8285,3313,-2653,2661,-19,173,-438
8295,3380,-1885,2750,-187,173,-188
8305,3076,-1273,1825,-429,183,-244
8315,2825,-1236,1488,-659,166,-225
8325,2778,-1541,1479,-664,162,-128
8335,2825,-2482,2157,-477,280,-45
8345,2887,-3358,2293,-343,337,83
8355,2884,-3756,2245,54,465,72
8365,2768,-3639,2455,524,512,6
8375,2440,-2906,2645,897,481,-62
8385,2076,-2080,2730,1114,360,-83
8395,1951,-1785,2904,1082,301,-12
8405,1978,-1695,2652,739,300,75
8415,1926,-1758,2451,447,335,70
8425,1750,-2007,2359,288,327,-23
8435,1653,-2221,2375,250,314,-100
8445,1621,-2205,2488,305,295,-146
8455,1603,-2183,2520,349,259,-180
8465,1554,-2213,2449,324,253,-199
8475,1531,-2404,2316,344,233,-198
8485,1439,-2592,2356,426,237,-211
8495,1580,-2681,2411,467,202,-226
8506,1632,-2768,2585,508,169,-224
8516,1655,-2711,2651,476,106,-238
8526,1671,-2630,2718,425,43,-200
8536,1655,-2545,2708,323,-9,-140
8546,1594,-2583,2599,277,-36,-118
8556,1585,-2735,2809,209,-24,-55
8566,1528,-2822,2867,58,-4,-28
8576,1503,-2880,2732,80,14,-38
8586,1479,-2979,2602,170,30,-40
8596,1444,-2937,2587,236,26,-11
8606,1404,-2812,2581,277,25,16
8616,1412,-2699,2672,261,28,14
8626,1453,-2601,2726,164,39,3
8636,1501,-2579,2771,54,53,21
8646,1507,-2624,2715,-58,41,36
8656,1551,-2667,2637,-98,27,51
8666,1604,-2708,2594,-77,14,70
8676,1624,-2686,2600,-65,12,79
8686,1625,-2604,2560,-11,-1,85
8696,1637,-2514,2585,10,-2,79
8706,1652,-2451,2634,34,-14,90
8716,1634,-2467,2747,44,-25,89
8726,1605,-2493,2790,41,-25,89
8736,1588,-2537,2867,67,-16,88
8746,1574,-2517,2923,70,-6,76
8757,1589,-2520,3024,84,10,70
8767,1599,-2529,3065,59,15,72
8777,1614,-2536,3083,15,31,77
8787,1632,-2570,3009,-31,48,77
8797,1598,-2629,2862,-47,64,79
8807,1554,-2678,2767,3,52,87
8817,1537,-2690,2733,61,39,93
8827,1520,-2629,2713,101,29,96
8837,1554,-2492,2715,105,20,110
8847,1557,-2407,2750,55,17,109
8857,1573,-2480,2796,15,23,101
8867,1576,-2626,2771,29,20,87
8877,1549,-2674,2745,64,10,73
8887,1553,-2560,2800,79,-2,74
8897,1504,-2477,2812,60,-11,92
8907,1504,-2442,2797,-9,7,96
8917,1511,-2491,2730,-58,25,89
8927,1483,-2563,2693,-39,31,77
8937,1434,-2626,2680,11,32,72
8947,1401,-2624,2652,64,25,83
8957,1456,-2619,2602,133,18,81
8967,1491,-2592,2639,143,0,89
8977,1487,-2542,2599,102,-10,90
8987,1469,-2460,2653,39,-27,81
8997,1473,-2339,2733,-72,-24,87
9008,1412,-2336,2786,-181,-15,92
9018,1397,-2435,2750,-218,0,78
9028,1383,-2543,2700,-176,3,74
9038,1363,-2595,2662,-83,-1,69
9048,1362,-2564,2699,31,-8,56
9058,1376,-2519,2708,71,-17,55
9068,1402,-2495,2753,86,-18,60
9078,1409,-2535,2821,32,-15,64
9088,1381,-2565,2851,-27,-10,74
9098,1430,-2572,2844,-49,-5,80
9108,1476,-2509,2866,-55,-2,85
9118,1509,-2438,2822,-67,11,76
9128,1509,-2477,2772,-64,12,60
9138,1487,-2551,2740,-51,17,48
9148,1499,-2606,2736,-22,22,43
9158,1545,-2622,2747,3,21,55
9168,1537,-2616,2743,-3,8,55
9178,1531,-2656,2750,-12,-10,62
9188,1497,-2692,2756,-9,-13,68
9198,1463,-2611,2832,-14,-15,55
9209,1429,-2526,2910,-70,-20,63
9219,1381,-2463,2894,-150,-1,49
9229,1363,-2515,2874,-189,15,49
9239,1383,-2660,2847,-180,28,49
9249,1403,-2811,2870,-143,29,52
9259,1415,-2880,2776,-98,51,55
9269,1374,-2843,2766,-54,67,76
9279,1281,-2750,2739,-3,66,82
9289,1274,-2599,2717,10,69,86
9299,1333,-2492,2638,-1,93,95
9309,1320,-2424,2621,-48,82,88
9319,1295,-2402,2590,-56,53,65
9329,1319,-2431,2561,-35,21,38
9339,1389,-2463,2618,-15,-7,33
9349,1438,-2509,2666,-4,-12,-3
9359,1421,-2563,2655,-4,-9,-36
9369,1329,-2562,2687,23,-18,-41
9379,1312,-2589,2790,23,-13,-47
9389,1308,-2618,2756,-20,-5,-42
9399,1318,-2667,2806,-29,5,-29
9410,1303,-2712,2774,-15,8,-27
9420,1338,-2731,2749,15,19,-14
9430,1345,-2692,2730,45,34,-16
9440,1360,-2545,2751,21,42,-24
9450,1389,-2425,2711,-25,49,-37
9460,1417,-2417,2719,-132,71,-45
9470,1435,-2467,2716,-199,75,-51
9480,1458,-2562,2758,-247,81,-64
9490,1467,-2666,2706,-232,89,-51
9500,1439,-2820,2654,-181,101,-54
9510,1366,-3020,2597,-60,93,-50
9520,1365,-2994,2585,77,84,-38
9530,1345,-2792,2595,186,81,-31
9540,1321,-2640,2648,211,77,-27
9550,1363,-2513,2697,152,72,-23
9560,1374,-2423,2794,57,64,-26
9570,1358,-2324,2870,-47,53,-72
9580,1336,-2275,2941,-143,56,-106
9590,1268,-2309,2949,-179,60,-127
9600,1283,-2416,2889,-165,77,-141
9611,1308,-2466,2877,-108,97,-175
9621,1289,-2491,2876,-12,90,-194
9631,1265,-2528,2888,78,87,-194
9641,1276,-2511,2889,72,90,-184
9651,1292,-2461,2887,49,75,-184
9661,1346,-2444,2876,-47,56,-179
9671,1427,-2491,2775,-155,53,-169
9681,1497,-2595,2787,-219,40,-171
9691,1539,-2642,2729,-241,12,-167
9701,1534,-2705,2717,-212,-6,-157
9711,1547,-2763,2673,-159,-14,-130
9721,1542,-2786,2615,-65,-33,-121
9731,1536,-2753,2636,-15,-43,-102
9741,1518,-2645,2641,9,-48,-86
9751,1540,-2597,2623,-13,-49,-69
9761,1581,-2601,2613,-36,-49,-42
9771,1606,-2649,2593,-26,-51,-33
9781,1566,-2712,2550,5,-63,-20
9791,1526,-2664,2556,34,-68,-22
9801,1490,-2588,2569,65,-71,-15
9812,1464,-2545,2591,55,-61,-9
9822,1492,-2559,2612,45,-49,-11
9832,1484,-2603,2657,4,-37,-26
9842,1450,-2683,2690,-9,-33,-16
9852,1433,-2695,2761,-36,-12,-6
9862,1406,-2679,2760,-83,-10,-2
9872,1393,-2656,2783,-130,-1,-5
9882,1356,-2648,2747,-161,5,0
9892,1386,-2695,2698,-152,17,-9
9902,1405,-2709,2665,-131,23,-7
9912,1401,-2686,2650,-84,19,-21
9922,1389,-2645,2632,-68,14,-32
9932,1413,-2599,2659,-77,8,-37
9942,1429,-2555,2655,-115,16,-35
9952,1442,-2561,2668,-135,10,-33
9962,1438,-2606,2696,-143,12,-32
9972,1453,-2617,2692,-150,14,-27
9982,1472,-2612,2689,-137,12,-30
9992,1490,-2630,2703,-114,7,-26
10002,1516,-2644,2690,-78,3,-28
10013,1504,-2658,2727,-33,-2,-17
10023,1508,-2662,2730,-10,-2,-11
10033,1499,-2627,2780,0,-11,-22
10043,1492,-2591,2758,-21,-9,-14
10053,1474,-2614,2753,-47,-2,-5
10063,1445,-2663,2753,-67,-1,-7
10073,1436,-2695,2690,-42,1,-14
10083,1418,-2717,2715,-4,-1,-4
10093,1415,-2674,2713,19,-3,2
10103,1426,-2614,2712,22,-6,-5
10113,1446,-2563,2724,-18,-8,0
10123,1461,-2602,2708,-49,-4,3
10133,1470,-2650,2701,-63,-4,7
10143,1495,-2723,2685,-77,-1,9
10153,1494,-2705,2676,-76,-10,11
10163,1470,-2684,2674,-67,-9,5
10173,1463,-2682,2650,-36,-9,-1
10183,1423,-2706,2634,-3,-12,1
10193,1415,-2675,2639,32,-9,4
10203,1406,-2615,2635,55,-18,8
10214,1410,-2568,2636,51,-24,-1
10224,1437,-2554,2628,34,-18,6
10234,1445,-2558,2669,17,-8,7
10244,1463,-2547,2659,-31,-25,4
10254,1467,-2563,2647,-50,-21,-6
10264,1490,-2652,2606,-57,-15,-12
10274,1447,-2693,2601,-39,-21,-12
10284,1431,-2700,2603,-4,-21,-8
10294,1421,-2699,2593,24,-28,-6
10304,1429,-2652,2644,22,-23,4
10314,1435,-2635,2670,-10,-19,12
10324,1473,-2633,2678,-30,-13,5
10334,1489,-2667,2700,-53,-2,10
10344,1521,-2652,2670,-88,1,13
10354,1502,-2697,2654,-76,3,12
10364,1491,-2736,2639,-55,0,10
10374,1454,-2721,2634,-6,2,4
10384,1427,-2676,2650,38,0,7
10394,1451,-2601,2688,20,2,6
10404,1458,-2554,2658,-12,6,-1
10415,1465,-2584,2662,-50,2,1
10425,1469,-2594,2631,-63,-5,3
10435,1495,-2621,2650,-70,-6,3
10445,1505,-2632,2678,-97,-6,2
10455,1514,-2655,2674,-93,-3,0
10465,1480,-2702,2689,-69,-6,8
10475,1478,-2733,2644,-36,-12,7
10485,1452,-2744,2646,16,-13,3
10495,1431,-2687,2660,36,-14,4
10505,1426,-2635,2659,51,-11,-1
10515,1415,-2612,2656,28,-11,7
10525,1426,-2593,2652,-16,-3,7
10535,1443,-2641,2640,-36,-8,15
10545,1447,-2647,2641,-39,-8,19
10555,1468,-2633,2609,-40,-8,22
10565,1477,-2622,2604,-25,1,20
10575,1473,-2642,2628,-5,-4,13
10585,1482,-2683,2634,31,-4,17
10595,1472,-2699,2655,52,-5,20
10605,1448,-2672,2666,42,-8,17
10616,1444,-2630,2654,26,-3,15
10626,1449,-2625,2661,-12,5,26
10636,1453,-2681,2623,-34,2,14
10646,1443,-2724,2628,-33,4,14
10656,1455,-2729,2591,-7,0,20
10666,1438,-2705,2628,13,-6,20
10676,1437,-2655,2641,5,-5,15
10686,1433,-2634,2628,-4,-11,11
10696,1430,-2644,2639,-4,-14,15
10706,1445,-2651,2648,1,-8,20
10716,1458,-2643,2663,-1,-7,14
10726,1477,-2629,2683,-12,-10,17
10736,1463,-2632,2665,-27,-4,16
10746,1464,-2637,2657,-15,-5,14
10756,1463,-2654,2672,-11,-12,11
10766,1482,-2652,2665,-14,-9,13
10776,1488,-2662,2671,-18,-8,9
10786,1499,-2685,2659,-16,-12,10
10796,1482,-2733,2680,13,-13,12
10806,1465,-2721,2699,32,-20,22
10817,1465,-2645,2680,27,-17,24
10827,1440,-2608,2681,1,-13,26
10837,1444,-2631,2655,-29,-12,20
10847,1433,-2657,2638,-32,-5,23
10857,1450,-2672,2606,-14,-6,23
10867,1428,-2687,2596,-6,-8,24
10877,1434,-2632,2584,-4,-11,27
10887,1440,-2612,2596,6,-19,25
10897,1462,-2593,2620,-1,-20,15
10907,1454,-2613,2642,-12,-15,11
10917,1469,-2638,2667,-18,-13,4
10927,1501,-2681,2668,-29,-11,7
10937,1483,-2689,2676,-26,-6,12
10947,1472,-2750,2663,-21,-8,12
10957,1463,-2763,2640,0,-13,10
10967,1438,-2745,2640,30,-11,19
10977,1422,-2701,2658,52,-13,24
10987,1409,-2643,2649,62,-19,19
10997,1400,-2605,2648,48,-12,21
11007,1416,-2581,2645,28,-15,25
11022,1418,-2610,2663,11,-15,18
11032,1413,-2637,2622,2,-15,12
11042,1443,-2668,2609,14,-4,7
11052,1451,-2684,2605,24,-6,5
11062,1444,-2684,2602,47,-6,2
11072,1457,-2716,2623,50,-9,9
11082,1451,-2681,2639,35,-5,8
11092,1446,-2648,2663,33,-6,7
11102,1441,-2638,2673,9,-6,2
11112,1480,-2623,2701,-12,1,3
11122,1478,-2648,2683,-39,6,-1
11132,1479,-2671,2648,-46,9,5
11142,1445,-2705,2608,-32,7,0
11152,1434,-2743,2587,-8,7,2
11162,1410,-2720,2572,25,4,-1
11172,1376,-2644,2611,50,1,4
11182,1383,-2604,2661,41,3,-2
11192,1394,-2559,2699,10,5,1
11202,1431,-2589,2709,-36,14,4
11212,1465,-2612,2699,-58,15,5
11222,1488,-2648,2662,-61,13,-3
11232,1465,-2718,2677,-35,16,-4
11242,1462,-2757,2652,4,17,-1
11252,1457,-2708,2648,34,17,3
11262,1454,-2656,2679,22,16,4
11272,1436,-2599,2668,3,9,-10
11282,1441,-2593,2678,-33,13,-6
11292,1442,-2644,2672,-61,15,-1
11302,1446,-2706,2666,-60,6,-9
11312,1480,-2710,2685,-36,9,-8
11322,1486,-2696,2669,-7,10,-13
11332,1447,-2691,2681,10,13,-7
11342,1410,-2676,2681,22,6,-3
11352,1401,-2654,2680,24,6,-6
11362,1402,-2605,2671,10,4,-4
11372,1397,-2602,2672,2,3,2
11382,1404,-2613,2658,-16,4,4
11392,1454,-2642,2668,-32,7,0
11402,1480,-2656,2671,-30,3,-1
11412,1464,-2665,2645,-26,1,-3
11422,1466,-2669,2657,-14,-3,0
11432,1462,-2658,2650,-10,-11,2
11442,1434,-2666,2669,-2,-5,4
11452,1397,-2667,2659,5,-3,6
11462,1415,-2634,2647,9,3,8
11472,1401,-2603,2648,0,8,21
11482,1409,-2587,2636,-8,4,14
11492,1441,-2602,2620,-23,15,16
11502,1443,-2619,2616,-33,12,13
11512,1435,-2635,2618,-29,5,9
11522,1431,-2684,2608,-15,3,14
11532,1429,-2678,2628,-1,3,3
11542,1449,-2653,2646,2,-3,3
11552,1421,-2639,2657,-11,-1,2
11562,1423,-2663,2697,-26,8,6
11572,1426,-2702,2708,-25,7,9
11582,1437,-2717,2706,-12,11,21
11592,1452,-2700,2692,-11,15,14
11602,1427,-2667,2654,-10,14,14
11612,1411,-2648,2654,-14,6,15
11622,1439,-2636,2651,-18,9,10
11632,1438,-2637,2653,-24,5,10
11642,1433,-2669,2656,-29,-2,9
11652,1446,-2656,2671,-27,3,10
11662,1450,-2656,2662,-26,1,9
11672,1429,-2670,2686,-22,-3,9
11682,1427,-2677,2691,-21,-5,8
11692,1432,-2674,2681,-22,-1,4
11702,1426,-2689,2700,-22,0,5
11712,1403,-2684,2681,-18,-3,13
11722,1382,-2674,2668,-20,-4,15
11732,1418,-2645,2683,-23,2,11
11742,1423,-2656,2655,-26,4,3
11752,1409,-2664,2638,-15,2,-3
11762,1403,-2683,2654,12,-3,8
11772,1429,-2673,2660,17,-8,3
11782,1432,-2652,2661,-2,-9,8
11792,1439,-2631,2673,-17,-11,-4
11802,1437,-2663,2673,-15,-13,3
11812,1443,-2657,2686,-14,-11,7
11822,1441,-2637,2658,-15,-7,8
11832,1436,-2634,2687,-21,-8,8
11842,1426,-2650,2623,-29,-1,5
11852,1424,-2705,2610,-15,-1,0
11862,1430,-2729,2610,1,-1,3
11872,1443,-2723,2602,27,-4,-1
11882,1439,-2677,2645,29,-7,3
11892,1417,-2662,2682,18,-10,3
11902,1420,-2646,2698,2,-10,8
11912,1415,-2648,2694,-19,-8,9
11922,1405,-2659,2708,-32,-6,9
11932,1414,-2684,2683,-30,1,12
11942,1393,-2699,2634,-31,-2,0
11952,1389,-2702,2615,3,-3,3
11962,1413,-2675,2616,14,-8,3
11972,1427,-2650,2631,16,-9,2
11982,1432,-2628,2615,-1,-2,1
11992,1434,-2609,2623,-12,-6,-1
12002,1420,-2626,2634,-27,-5,0
12012,1418,-2651,2605,-14,4,-5
12028,1420,-2656,2626,-32,-2,-2
12038,1418,-2659,2612,-16,1,-3
12048,1412,-2685,2600,-11,3,-9
12058,1416,-2715,2611,-10,8,-4
12068,1406,-2700,2631,6,9,5
12078,1401,-2723,2634,41,9,7
12088,1422,-2711,2665,45,11,5
12098,1458,-2659,2685,19,11,9
12108,1442,-2622,2691,-27,7,-2
12118,1438,-2620,2700,-57,5,3
12128,1451,-2682,2702,-70,6,2
12138,1474,-2685,2707,-67,7,-2
12148,1471,-2674,2707,-52,8,-4
12158,1462,-2684,2740,-66,4,-5
12168,1506,-2719,2851,-126,12,0
12178,1608,-2755,2947,-254,33,18
12188,1691,-2871,3104,-407,75,39
12198,1847,-2977,3084,-617,144,77
12208,1798,-2938,3039,-827,178,127
12218,1696,-2843,3011,-998,163,167
12228,1747,-2710,2711,-1137,234,214
12238,1671,-2579,2474,-1123,218,257
12248,1716,-2435,2332,-1074,177,261
12258,1860,-2232,2055,-1074,171,254
12268,1889,-2161,1695,-1108,144,227
12278,1923,-2213,1217,-1146,109,194
12288,2087,-2378,937,-1173,124,175
12298,1976,-2531,763,-1269,-72,210
12308,1800,-2349,456,-1313,-227,70
12318,1995,-2117,1047,-1110,-304,-25
12328,2228,-1989,1658,-1158,-296,-42
12338,1987,-2066,1675,-1242,-375,-129
12348,1954,-2463,1533,-1155,-432,-212
12358,1918,-2623,1300,-1054,-497,-244
12368,1847,-2556,1188,-906,-566,-321
12378,1848,-2416,1169,-855,-636,-393
12388,1874,-2311,1214,-929,-664,-459
12398,1907,-2446,1287,-1028,-675,-513
12408,1884,-2777,1301,-1087,-714,-533
12418,1847,-3136,1409,-1068,-770,-566
12428,1840,-3354,1700,-1025,-852,-567
12438,1787,-3370,1999,-992,-987,-542
12448,1709,-3260,2187,-906,-1153,-529
12458,1673,-3096,2466,-854,-1292,-529
12468,1683,-2927,2406,-867,-1372,-514
12478,1690,-2893,2127,-960,-1368,-485
12488,1629,-2992,1669,-1063,-1340,-488
12498,1542,-3256,1352,-1113,-1306,-571
12508,1505,-3583,927,-1102,-1323,-663
12518,1605,-3780,778,-965,-1318,-704
12528,1691,-3806,741,-718,-1333,-728
12538,1835,-3653,880,-451,-1330,-798
12548,2062,-3425,1166,-342,-1316,-796
12558,2171,-3144,1385,-454,-1270,-750
12568,2242,-2947,1582,-723,-1192,-744
12578,2301,-2849,1596,-1069,-1104,-769
12588,2403,-2953,1452,-1438,-1007,-786
12598,2505,-3119,1175,-1838,-882,-784
12608,2518,-3182,966,-2241,-798,-761
12618,2555,-3196,799,-2532,-757,-779
12628,2703,-3218,769,-2811,-772,-767
12638,2881,-3233,585,-3136,-763,-687
12648,2950,-3315,263,-3391,-683,-619
12658,2942,-3497,-52,-3506,-591,-605
12668,2892,-3687,-209,-3517,-528,-588
12678,2796,-3753,-375,-3419,-498,-559
12688,2757,-3767,-563,-3218,-501,-517
12698,2722,-3704,-746,-2985,-472,-481
12708,2825,-3667,-677,-2764,-487,-504
12718,2940,-3633,-803,-2548,-505,-485
12728,2996,-3552,-985,-2404,-555,-429
12738,3020,-3531,-1275,-2372,-570,-378
12748,3070,-3529,-1553,-2429,-557,-304
12758,3032,-3489,-1851,-2424,-564,-234
12768,3004,-3451,-1927,-2382,-507,-210
12778,2823,-3283,-1992,-2282,-451,-189
12788,2665,-3184,-1870,-2190,-441,-183
12798,2536,-3032,-1842,-2181,-415,-180
12808,2431,-2878,-1887,-2101,-403,-198
12818,2358,-2982,-2007,-2093,-413,-191
12828,2256,-3095,-2026,-2218,-390,-139
12838,2097,-3082,-2215,-2354,-396,-150
12848,1935,-3221,-2535,-2179,-470,-212
12858,1916,-3415,-2823,-1899,-554,-196
12868,2032,-3612,-3552,-1387,-659,-125
12878,2415,-2587,-1089,-1156,-281,-334
12888,3916,-2185,-377,-1296,-147,-538
12898,3977,-3431,-378,-890,348,400
12908,2553,-4046,-361,-671,582,570
12918,2033,-4291,-985,-710,519,363
12928,1797,-3672,-1723,-439,539,449
12938,1708,-2838,-1873,-79,476,422
12948,1823,-2631,-2034,-6,425,400
12958,1857,-2941,-2370,-183,339,511
12968,1662,-3500,-2933,-292,233,607
12978,1334,-3707,-2989,-103,202,462
12988,1192,-3890,-3091,296,73,360
12998,1180,-4149,-2613,785,-49,446
13008,1263,-3827,-1885,1034,-160,359
13018,1745,-2990,-1470,1101,-216,177
13028,2106,-2368,-1607,1097,-164,172
13038,2091,-2382,-1608,948,-70,280
13048,1844,-2607,-1975,653,-47,382
13058,1616,-2891,-2185,562,-78,420
13068,1520,-3115,-2439,531,-181,405
13078,1546,-3046,-2682,668,-272,361
13088,1672,-3055,-2718,908,-385,325
13098,1778,-3113,-2623,1121,-453,281
13108,1985,-2991,-2121,1111,-496,180
13118,2181,-2457,-1476,970,-456,83
13128,2234,-2120,-1009,902,-443,-21
13138,2186,-2412,-773,1002,-441,-16
13148,2038,-2629,-926,990,-457,60
13158,1944,-2592,-1283,1032,-445,59
13168,1950,-2626,-1431,1137,-427,11
13178,2011,-2812,-1558,1234,-440,14
13188,2120,-2915,-1535,1277,-447,0
13198,2269,-2899,-1408,1229,-391,-44
13208,2342,-2727,-1476,1137,-304,-39
13218,2300,-2586,-1525,1113,-260,-29
13228,2315,-2464,-1241,996,-225,-42
13238,2381,-2270,-1054,789,-197,-51
13248,2407,-2260,-641,680,-170,-45
13258,2388,-2562,-397,578,-183,-67
13268,2402,-2895,-497,579,-171,-82
13279,2397,-3104,-717,628,-135,-57
13289,2346,-3072,-1022,622,-101,-82
13299,2378,-2993,-1036,556,-54,-131
13309,2460,-2884,-975,318,7,-113
13319,2473,-2804,-883,-7,75,-72
13329,2478,-2958,-723,-150,104,-80
13339,2479,-3339,-675,-151,113,-89
13349,2429,-3555,-819,-88,128,-93
13359,2398,-3612,-1027,44,139,-100
13369,2355,-3567,-1096,147,151,-90
13379,2362,-3441,-1143,193,154,-100
13389,2460,-3361,-1097,197,167,-81
13399,2507,-3303,-1085,95,175,-27
13409,2568,-3294,-1100,-25,170,-12
13419,2666,-3421,-1095,-40,172,17
13429,2679,-3512,-1104,-59,191,53
13439,2650,-3473,-1189,-24,211,72
13449,2642,-3421,-1187,32,222,87
13459,2619,-3292,-1113,81,231,107
13469,2593,-3134,-1071,111,242,112
13479,2551,-3030,-1114,104,245,112
13489,2495,-3033,-1083,96,242,117
13499,2416,-2989,-1091,46,234,113
13509,2334,-2871,-1102,-10,232,106
13519,2306,-2826,-1105,-32,245,100
13530,2257,-2887,-1073,-11,246,97
13540,2263,-2889,-1034,-44,232,87
13550,2276,-2897,-1003,-15,225,82
13560,2270,-2953,-918,4,234,90
13570,2302,-3000,-1006,-50,239,103
13580,2429,-3079,-1188,-68,242,129
13590,2590,-3189,-1283,-83,258,160
13600,2689,-3283,-1401,-78,299,164
13610,2735,-3355,-1374,-44,350,196
13620,2695,-3324,-1313,-25,376,206
13630,2676,-3273,-1232,47,390,210
13640,2686,-3203,-1023,97,387,226
13650,2683,-3148,-930,152,395,238
13660,2682,-3121,-870,187,403,249
13670,2763,-3144,-871,188,399,242
13680,2898,-3058,-870,98,410,239
13690,2987,-2863,-849,10,463,223
13700,2990,-2709,-851,-62,527,237
13710,2870,-2641,-813,-101,573,240
13720,2728,-2648,-929,-110,575,225
13730,2636,-2673,-809,-113,542,197
13740,2574,-2649,-690,-206,509,146
13750,2554,-2610,-694,-249,488,86
13760,2392,-2544,-845,-257,480,45
13770,2176,-2683,-1045,-273,457,23
13781,2025,-2875,-1215,-364,412,5
13791,1949,-2935,-1364,-458,365,-13
13801,1929,-2972,-1368,-508,316,-43
13811,1911,-2981,-1373,-540,262,-44
13821,1888,-3038,-1318,-557,212,-42
13831,1877,-3158,-1399,-596,171,-40
13841,1944,-3379,-1416,-548,154,8
13851,2073,-3529,-1503,-533,133,47
13861,2330,-3616,-1576,-508,136,81
13871,2560,-3646,-1605,-476,157,129
13881,2644,-3711,-1527,-395,205,174
13891,2677,-3735,-1421,-315,249,205
13901,2676,-3686,-1457,-272,261,233
13911,2652,-3636,-1433,-214,277,254
13921,2589,-3480,-1366,-134,284,277
13931,2555,-3300,-1351,-45,314,282
13941,2521,-3157,-1313,30,342,296
13951,2539,-2966,-778,40,376,303
13961,2589,-2674,-311,-99,387,301
13971,2643,-2490,-265,-135,348,282
13981,2670,-2596,-313,-103,338,254
13991,2641,-2677,-642,-92,332,224
14001,2551,-2667,-789,-73,334,187
14011,2458,-2662,-840,-150,301,154
14021,2450,-2704,-790,-267,259,119
14032,2479,-2797,-772,-350,221,97
14042,2533,-2912,-785,-418,224,74
14052,2528,-3064,-1016,-403,213,68
14062,2448,-3261,-1076,-356,218,82
14072,2387,-3352,-1084,-290,196,78
14082,2376,-3321,-1032,-198,189,78
14092,2325,-3202,-985,-161,172,53
14102,2320,-3112,-1015,-157,163,32
14112,2303,-3108,-1099,-191,140,34
14122,2253,-3122,-1160,-222,115,37
14132,2212,-3163,-1227,-211,99,35
14142,2152,-3330,-1201,-136,85,33
14152,2142,-3444,-1144,-77,95,72
14162,2160,-3418,-1106,-61,89,83
14172,2205,-3251,-1115,-48,95,89
14182,2254,-3152,-1065,-27,111,111
14192,2231,-3109,-1104,-69,134,122
14202,2208,-3146,-1122,-97,144,115
14212,2163,-3162,-1078,-159,152,121
14222,2152,-3133,-978,-217,158,128
14233,2140,-3155,-954,-224,180,139
14243,2139,-3229,-979,-235,201,146
14253,2136,-3345,-1090,-211,201,147
14263,2130,-3382,-1199,-198,207,159
14273,2094,-3405,-1319,-151,207,168
14283,2063,-3450,-1358,-109,199,180
14293,2014,-3393,-1330,-85,189,176
14303,1965,-3303,-1442,-37,157,146
14313,1960,-3364,-1501,38,128,131
14323,1958,-3406,-1434,55,97,147
14333,1984,-3304,-1334,44,76,145
14343,2004,-3252,-1252,110,65,139
14353,2005,-3263,-1158,142,48,138
14363,2018,-3301,-1159,173,31,142
14373,2027,-3327,-1173,217,16,143
14383,2055,-3332,-1125,197,6,132
14393,2081,-3274,-1164,163,0,113
14403,2042,-3268,-1199,138,-4,84
14413,2056,-3274,-1213,110,-14,68
14423,2055,-3303,-1246,105,-25,64
14434,2048,-3327,-1334,157,-48,62
14444,2044,-3447,-1311,240,-67,69
14454,2031,-3563,-1237,328,-89,96
14464,2039,-3659,-1165,430,-106,119
14474,2051,-3544,-1064,471,-110,148
14484,2081,-3224,-906,467,-82,181
14494,2023,-2906,-778,435,-68,217
14504,1967,-2867,-735,389,-81,221
14514,1925,-3036,-728,353,-106,228
14524,1929,-3241,-865,335,-121,218
14534,1956,-3407,-1015,345,-136,200
14544,2017,-3336,-937,300,-135,198
14554,2016,-3052,-888,260,-131,187
14564,1964,-2895,-821,246,-131,150
14574,1992,-2981,-807,217,-131,148
14584,1972,-3185,-830,195,-154,170
14594,2013,-3414,-785,187,-174,177
14604,2082,-3554,-759,190,-202,164
14614,2130,-3593,-665,228,-219,165
14624,2162,-3484,-645,227,-218,169
14635,2138,-3405,-712,216,-214,180
14645,2133,-3469,-758,219,-221,187
14655,2110,-3630,-825,163,-232,206
14665,2076,-3722,-893,98,-236,206
14675,2068,-3726,-923,90,-246,203
14685,2055,-3689,-824,92,-266,213
14695,2029,-3540,-793,123,-278,217
14705,1947,-3411,-701,208,-295,212
14715,1908,-3360,-670,250,-329,211
14725,1887,-3336,-656,275,-357,213
14735,1897,-3313,-605,234,-367,211
14745,1910,-3301,-571,112,-370,209
14755,1905,-3221,-598,-27,-349,205
14765,1837,-3121,-691,-94,-326,195
14775,1772,-3133,-719,-116,-309,184
14785,1707,-3272,-715,-174,-297,181
14795,1724,-3274,-660,-255,-295,175
14805,1759,-3153,-621,-370,-280,169
14815,1760,-2986,-632,-489,-262,146
14825,1720,-2933,-672,-584,-248,123
14836,1651,-2978,-759,-699,-240,106
14846,1629,-3015,-902,-820,-233,70
14856,1641,-3031,-953,-931,-260,40
14866,1686,-3042,-905,-1062,-281,21
14876,1686,-3066,-935,-1132,-308,1
14886,1663,-3193,-1019,-1148,-315,-16
14896,1627,-3282,-1134,-1158,-327,-47
14906,1647,-3305,-1194,-1187,-330,-81
14916,1667,-3275,-1365,-1250,-323,-101
14926,1608,-3248,-1498,-1268,-321,-128
14936,1597,-3288,-1481,-1264,-327,-160
14946,1635,-3242,-1542,-1308,-328,-196
14956,1698,-3105,-1530,-1368,-311,-226
14966,1772,-3054,-1604,-1458,-311,-249
14976,1849,-3111,-1734,-1510,-320,-264
14986,1916,-3305,-1909,-1483,-318,-274
14996,1935,-3410,-2082,-1370,-299,-281
15006,1928,-3407,-2040,-1250,-290,-277
15016,1872,-3237,-2403,-1141,-289,-277
15026,1743,-3117,-2355,-897,-300,-278
15037,1632,-2998,-2143,-859,-314,-299
15047,1554,-2828,-2211,-878,-305,-348
15057,1526,-2842,-2290,-865,-291,-380
15067,1456,-3100,-2493,-675,-303,-404
15077,1395,-3314,-2421,-505,-326,-394
15087,1327,-3256,-2409,-472,-342,-356
15097,1400,-3412,-2634,-188,-399,-327
15107,1610,-3823,-2356,-73,-395,-186
15117,1834,-4048,-2281,-115,-362,-85
15127,2077,-4292,-2264,31,-342,32
15137,2193,-4490,-2342,148,-312,130
15147,2191,-4610,-2466,388,-303,233
15157,2109,-4562,-2558,608,-320,342
15167,2027,-4257,-2573,858,-296,401
15177,2009,-3823,-2827,1198,-281,432
15187,1919,-3556,-2786,1558,-194,484
15197,1704,-3557,-2835,1696,-157,518
15207,1582,-3881,-2986,1920,-153,492
15217,1514,-4276,-2932,2211,-162,443
15227,1509,-4401,-2825,2458,-141,389
15238,1528,-4040,-2701,2552,-95,306
15248,1664,-3298,-2594,2239,45,210
15258,1718,-2155,-2221,1567,80,216
15268,1600,-1258,-1772,1030,105,205
15278,1501,-1460,-1456,725,90,189
15288,1561,-2383,-1416,615,68,227
15298,1665,-3171,-1445,970,16,254
15308,1809,-3517,-1345,1495,-22,176
15318,1974,-3209,-1233,1808,-17,46
15328,2066,-2693,-952,1866,13,-23
15338,2129,-2146,-530,1415,91,-69
15348,2227,-1557,-248,707,213,-126
15358,2197,-1428,-119,23,288,-165
15368,2187,-1974,-224,-511,366,-198
15378,2184,-2516,-481,-857,389,-243
15388,2186,-2709,-684,-1032,387,-311
15398,2235,-2566,-795,-1188,377,-332
15408,2195,-2469,-1025,-1273,379,-335
15418,2161,-2632,-1359,-1332,354,-310
15428,2156,-2828,-1713,-1341,341,-278
15439,2196,-3071,-1971,-1220,316,-297
15449,2255,-3334,-2101,-1029,329,-272
15459,2275,-3412,-1892,-962,350,-219
15469,2231,-2982,-1578,-1077,394,-188
15479,2244,-2429,-1293,-1225,469,-162
15489,2205,-2268,-1534,-1347,525,-112
15499,2216,-2638,-1924,-1325,564,-60
15509,2290,-3223,-2212,-1152,637,-18
15519,2256,-3624,-2333,-843,735,62
15529,2131,-3465,-2344,-589,802,94
15539,2109,-3058,-2574,-375,797,90
15549,2125,-2840,-2523,-289,785,168
15559,2140,-2683,-2205,-337,781,192
15569,2207,-2653,-2137,-304,764,189
15579,2252,-2821,-2199,-193,825,217
15589,2153,-3027,-2426,-152,878,266
15599,2119,-3277,-2569,-182,930,334
15609,2092,-3164,-2664,-431,955,389
15619,2158,-2820,-2485,-631,988,432
15629,2049,-2541,-2136,-737,1012,492
15640,1934,-2449,-2059,-938,1054,482
15650,1864,-2558,-2194,-1042,1058,484
15660,1842,-2850,-2353,-1240,1017,554
15670,1690,-3272,-3306,-1257,918,642
15680,1556,-3323,-3286,-1055,829,722
15690,1649,-2500,-2623,-1418,798,724
15700,2145,-2057,-1765,-1712,810,729
15710,2437,-2600,-1493,-1730,856,772
15720,2462,-3356,-1269,-1578,982,862
15730,2215,-3524,-1599,-1170,1078,859
15740,1888,-3466,-1977,-880,1088,840
15750,1729,-3217,-2452,-565,983,832
15760,1949,-2919,-2533,-548,917,794
15770,2228,-2935,-2390,-410,918,699
15780,2305,-2986,-2065,-370,966,509
15790,2176,-2766,-1899,-524,977,278
15800,2015,-2351,-1845,-706,922,161
15810,1931,-1929,-1875,-972,867,122
15820,1791,-3411,-1291,-1138,945,65
15830,1298,-4498,-1512,-300,1088,-214
15841,532,-3523,-1134,990,1079,-460
15851,517,-1857,-1296,425,937,-567
15861,969,-2100,-1184,182,727,-721
15871,1185,-3176,-881,57,751,-816
15881,1152,-3110,-691,200,762,-1023
15891,1166,-2467,-961,181,747,-1258
15901,1347,-2382,-1283,-3,619,-1370
15911,1391,-2713,-1671,-121,494,-1480
15921,1528,-3096,-1954,18,390,-1575
15931,1634,-3006,-1958,48,322,-1623
15941,2051,-3359,-2178,176,248,-1612
15951,1984,-3641,-1574,240,229,-1660
15961,2196,-3446,-1387,447,242,-1705
15971,1935,-3473,-1017,484,263,-1588
15981,1905,-3334,-1125,577,167,-1640
15991,1822,-3384,-1003,650,202,-1536
16001,1598,-3035,-1174,633,194,-1453
16011,1559,-2811,-1353,672,128,-1376
16021,1490,-2764,-1433,634,90,-1311
16031,1467,-2810,-1414,611,50,-1312
16042,1431,-2788,-1322,600,11,-1336
16052,1454,-2705,-1277,569,-40,-1362
16062,1481,-2693,-1250,587,-92,-1367
16072,1486,-2784,-1185,652,-142,-1344
16082,1489,-2846,-1195,656,-183,-1322
16092,1544,-2816,-1414,659,-242,-1283
16102,1490,-2743,-1774,629,-351,-1215
16112,1820,-2939,-1527,614,-431,-1136
16122,1896,-3428,-1465,552,-468,-984
16132,1819,-3388,-1485,1076,-443,-1020
16142,1784,-3351,-1173,1297,-494,-925
16152,1672,-3042,-1179,1523,-562,-890
16162,1748,-3007,-1183,1832,-670,-881
16172,1836,-3019,-1199,2081,-708,-830
16182,1903,-2778,-1528,2210,-715,-818
16192,2094,-2666,-1740,2222,-759,-775
16202,2249,-2284,-2158,1870,-765,-746
16212,2492,-1726,-2302,1553,-770,-741
16222,2622,-1934,-2015,1282,-845,-676
16232,2658,-2385,-1454,1144,-908,-718
16243,2773,-2684,-1048,1198,-989,-826
16253,2908,-2947,-1074,1423,-1100,-857
16263,3051,-3105,-1255,1671,-1148,-808
16273,3192,-2787,-1333,1779,-1113,-724
16283,3304,-2336,-1560,1723,-1119,-662
16293,3502,-2340,-1736,1596,-1199,-617
16303,3771,-2726,-1741,1490,-1283,-544
16313,4064,-2772,-1454,1350,-1261,-506
16323,4293,-2257,-1395,1248,-1175,-483
16333,4301,-1891,-1424,1171,-1103,-386
16343,4199,-1938,-1430,1023,-1094,-265
16353,4125,-2148,-1429,847,-1165,-158
16363,4234,-2380,-1437,758,-1258,-117
16373,4466,-2466,-1462,770,-1311,-93
16383,4674,-2409,-1526,756,-1293,-63
16393,4739,-2376,-1581,674,-1226,-40
16403,4734,-2523,-1563,570,-1151,4
16413,4717,-2672,-1752,417,-1095,78
16423,4783,-3005,-1957,469,-1080,222
16433,4968,-3296,-1530,623,-979,271
16444,5058,-3117,-956,785,-830,216
16454,4864,-2153,-881,826,-642,84
16464,4450,-1468,-626,765,-420,15
16474,4060,-1230,-579,543,-364,97
16484,3869,-1465,-538,331,-353,218
16494,3960,-1754,-640,58,-348,236
16504,4053,-2088,-781,-84,-243,284
16514,3948,-2211,-1002,-213,-57,289
16524,3590,-2346,-1255,-156,21,274
16534,3241,-2517,-1383,-92,-16,273
16544,3171,-2477,-1191,-36,-84,276
16554,3379,-2623,-920,105,-200,301
16564,3879,-3708,-581,454,-254,444
16574,3979,-5307,480,1223,-133,772
16584,3209,-3386,-237,1231,98,226
16594,3457,-1075,-1108,1706,144,3
16604,3026,-754,-567,1347,249,279
16614,2560,-958,-798,646,171,311
16624,2490,-1889,-1212,450,-20,227
16634,2650,-2760,-1032,614,-73,200
16645,2774,-2747,-837,806,-41,113
16655,2914,-2418,-732,1025,-53,36
16665,3083,-2278,-777,1030,-48,23
16675,3042,-2225,-981,923,-22,53
16685,2895,-2401,-1165,809,-33,54
16695,2866,-2599,-1217,806,-82,42
16705,2964,-2699,-1183,833,-130,38
16715,3074,-2819,-1076,945,-162,45
16725,3163,-3018,-930,1017,-144,34
16735,3161,-3084,-873,1104,-118,16
16745,3046,-2910,-856,1176,-81,-20
16755,2941,-2957,-924,1263,-58,26
16765,2844,-3127,-890,1282,-77,89
16775,2889,-3020,-1167,1299,-107,87
16785,2959,-2809,-1272,1324,-132,85
16795,2955,-2588,-1340,1290,-160,58
16805,2991,-2454,-1208,1258,-174,25
16815,3007,-2438,-1002,1193,-179,28
16825,3055,-2204,-614,1057,-162,-25
16835,3128,-1844,-559,903,-98,-56
16846,3053,-1802,-579,779,-62,-47
16856,2905,-1960,-653,657,-42,-90
16866,2849,-2003,-596,534,-10,-109
16876,2839,-1793,-564,356,6,-143
16886,2896,-1834,-472,212,25,-177
16896,3003,-2068,-432,37,81,-183
16906,3002,-2323,-513,-90,145,-184
16916,3020,-2663,-612,-189,196,-150
16926,3001,-2824,-660,-225,223,-111
16936,3100,-2966,-594,-150,233,-105
16946,3184,-3183,-458,-34,239,-54
16956,3197,-3210,-433,70,264,-38
16966,3142,-3283,-399,253,239,-5
16976,3065,-3365,-462,377,197,35
16986,3016,-3292,-598,406,143,56
16996,2942,-3132,-802,288,96,76
17006,2768,-2975,-866,112,79,43
17016,2618,-3081,-1005,99,9,-34
17026,2552,-2966,-1153,142,-91,-5
17036,2560,-2909,-1203,115,-136,30
17047,2603,-2962,-1249,74,-150,20
17057,2623,-2917,-1308,61,-140,22
17067,2596,-2639,-936,55,-116,30
17077,2667,-2149,-452,-26,-105,-18
17087,2939,-2155,-144,-85,-139,38
17097,3127,-2504,-134,-282,-129,127
17107,3253,-2830,-432,-389,-30,107
17117,3222,-2856,-612,-436,143,56
17127,3022,-2691,-637,-439,279,66
17137,2741,-2708,-610,-460,305,94
17147,2561,-2813,-632,-465,277,111
17157,2522,-2911,-561,-398,222,159
17167,2634,-2811,-288,-356,188,175
17177,2786,-2638,-255,-376,190,116
17187,2838,-2791,-320,-339,165,80
17197,2807,-3066,-549,-280,151,81
17207,2655,-3010,-778,-267,174,27
17217,2674,-2789,-920,-159,138,-24
17227,2715,-2599,-879,-164,90,-19
17237,2838,-2470,-820,-211,64,-54
17248,2949,-2463,-767,-266,85,-59
17258,2932,-2600,-530,-258,141,-26
17268,2846,-2756,-322,-241,144,-21
17278,2869,-2673,-94,-241,166,-133
17288,2976,-2865,-128,-104,186,-140
17298,2892,-3217,11,21,230,-76
17308,2749,-3349,-194,175,244,-89
17318,2642,-3553,-573,451,192,-53
17328,2525,-3691,-877,592,121,16
17338,2514,-3692,-906,697,28,69
17348,2590,-3385,-914,734,-87,75
17358,2781,-3000,-820,696,-170,97
17368,2819,-2969,-789,627,-200,157
17378,2752,-3187,-756,565,-233,176
17388,2780,-3123,-664,521,-251,149
17398,2914,-2883,-835,528,-245,89
17408,2904,-2331,-1111,378,-189,-22
17418,2966,-1809,-565,308,-70,-72
17428,2962,-1718,-429,176,-23,-137
17438,3050,-1711,-426,-11,-43,-156
17449,3310,-1760,-274,-253,25,-212
17459,3617,-1652,-55,-533,84,-219
17469,3762,-1122,-33,-946,105,-295
17479,3783,-1265,-499,-1385,52,-328
17489,3215,-910,-1267,-2698,56,-257
17499,2726,-420,-2116,-3958,32,-138
17509,2602,-1179,-1200,-5279,2,83
17519,2556,-2204,-1495,-5825,-107,-5
17529,2973,-2855,-1596,-5589,-157,18
17539,3149,-2723,-1594,-5129,45,38
17549,3561,-3849,-990,-4073,265,-19
17559,3023,-5056,-1231,-3110,319,219
17569,2716,-5340,-2012,-2215,228,109
17579,2750,-4787,-2302,-1188,162,62
17589,2874,-3620,-2685,-427,107,51
17599,2936,-2671,-1913,-202,12,279
17609,3013,-2149,-1136,5,17,164
17619,3119,-1443,-642,-379,17,114
17629,3085,-1838,-853,-471,-38,235
17639,2899,-2460,-918,-561,-31,233
17650,2562,-3420,-1646,-259,-124,343
17660,2598,-2986,-1808,-14,-39,53
17670,2628,-2170,-1504,15,-71,-20
17680,3213,-2174,-1210,46,-131,118
17690,3282,-2463,-922,-56,-52,115
17700,3153,-2744,-1171,2,1,60
17710,2835,-2401,-1404,68,72,21
17720,2824,-1872,-1529,5,53,22
17730,2959,-1731,-1610,-154,1,12
17740,3095,-1897,-1676,-320,37,9
17750,3054,-2008,-1628,-469,125,0
17760,2922,-2085,-1633,-591,189,-16
17770,2772,-2265,-1781,-640,216,-13
17780,2668,-2544,-2004,-610,210,-27
17790,2658,-2795,-2266,-520,193,-45
17800,2722,-2655,-2416,-418,212,-65
17810,2853,-2095,-2039,-413,274,-64
17820,2814,-1602,-2205,-606,283,-77
17830,2588,-1815,-2370,-771,284,-27
17840,2280,-2049,-2700,-893,212,19
17851,2115,-2181,-2923,-886,86,-33
17861,2064,-2092,-3035,-914,1,-65
17871,2146,-1985,-2755,-872,-46,-59
17881,2186,-2021,-2471,-903,-100,-58
17891,2385,-2359,-2124,-843,-124,-25
17901,2448,-2783,-2169,-735,-113,17
17911,2530,-3671,-1797,-244,-82,136
17921,2194,-3427,-1861,250,-46,135
17931,2402,-2513,-1837,991,-81,-63
17941,2613,-1840,-2123,1155,-80,-46
17951,2524,-1496,-2441,1070,-91,-53
17961,2514,-1541,-2458,1012,-214,-159
17971,2544,-1786,-2494,713,-325,-187
17981,2613,-1774,-2357,495,-364,-190
17991,2737,-1711,-1833,456,-401,-191
18001,2953,-1986,-1149,408,-404,-184
18011,3027,-2329,-952,516,-357,-155
18021,2942,-2531,-1026,641,-288,-103
18031,2899,-2561,-976,738,-162,-104
18041,2872,-2535,-1137,787,-68,-43
18052,2888,-2316,-1277,721,-40,-9
18062,2947,-2302,-1337,750,-13,-23
18072,3053,-2442,-1079,831,9,-18
18082,3195,-2481,-874,885,49,-16
18092,3246,-2294,-705,838,111,7
18102,3262,-2103,-706,758,128,-10
18112,3226,-1949,-883,642,157,-31
18122,3225,-1908,-868,478,182,-68
18132,3202,-2102,-659,299,187,-82
18142,3093,-2286,-743,230,175,-106
18152,3014,-2362,-944,217,177,-132
18162,2975,-2334,-979,161,163,-153
18172,2911,-2416,-1333,56,116,-159
18182,2957,-2478,-1674,-110,85,-161
18192,3039,-2420,-2074,-182,36,-185
18202,3085,-2530,-2178,-224,-29,-180
18212,3100,-2566,-2291,-421,-124,-152
18222,3199,-2554,-2044,-600,-204,-113
18232,3240,-2492,-1575,-884,-235,-59
18242,3186,-2293,-1502,-1059,-223,-68
18253,3151,-2816,-2182,-763,-390,-23
18263,3133,-3703,-2544,-274,-443,132
18273,2880,-3876,-2605,180,-289,146
18283,2581,-3238,-2902,483,-323,72
18293,2829,-2880,-2724,669,-609,138
18303,3170,-2581,-2586,411,-820,218
18313,3589,-2198,-2106,312,-770,112
18323,3893,-1605,-15,-158,-406,41
18333,3648,-630,64,-492,-179,-144
18343,3208,-656,-1140,-559,-252,-256
18353,3168,-1117,-1441,-793,-407,-173
18363,3146,-1847,-3479,-638,-643,-171
18373,3621,-2690,-1796,-545,-555,-37
18383,3821,-1762,-1469,-987,-474,-149
18393,3653,-1386,-2293,-895,-363,-265
18403,2952,-1649,-4680,-505,-560,-245
18413,3146,-3164,-3358,982,-667,86
18423,3632,-3010,-557,-58,-312,-109
18433,3208,-3347,-1378,1083,-102,129
18443,1992,-3762,-1299,1095,70,-185
18454,2506,-2992,-1891,892,-231,207
18464,2859,-2696,-1610,810,-336,378
18474,3424,-1988,-1260,556,-143,238
18484,3229,-1596,-1566,638,14,107
18494,2704,-1670,-1322,727,44,80
18504,2498,-1170,-997,677,-70,-12
18514,2846,-1041,-1077,783,-253,-98
18524,3253,-1173,-1445,663,-337,-72
18534,3358,-1268,-1799,524,-274,-124
18544,3175,-1570,-2145,414,-226,-144
18554,2896,-2199,-2506,488,-254,-115
18564,2817,-2550,-2684,500,-287,-69
18574,2913,-2863,-2603,662,-275,-29
18584,2968,-2962,-2520,724,-239,16
18594,3066,-2738,-2339,663,-156,73
18604,3049,-2340,-2318,479,-64,169
18614,2780,-2426,-2195,366,-26,243
18624,2471,-2580,-1971,326,-13,256
18634,2385,-2580,-1528,332,7,252
18644,2441,-2418,-1070,214,51,279
18655,2559,-2259,-888,99,141,296
18665,2653,-2491,-952,55,206,292
18675,2618,-2715,-1548,125,224,312
18685,2545,-2689,-1535,136,239,289
18695,2476,-2547,-1328,99,222,262
18705,2533,-2305,-1217,-14,106,213
18715,2602,-2343,-1299,-104,17,160
18725,2660,-2701,-1255,-152,-22,128
18735,2602,-3064,-1466,-99,-27,97
18745,2420,-3062,-1852,81,-70,33
18755,2274,-2843,-1830,298,-59,-56
18765,2268,-2562,-1491,361,-86,-85
18775,2375,-2247,-1530,213,-105,-69
18785,2547,-2100,-1775,158,-114,-57
18795,2624,-2250,-1803,65,-56,-52
18805,2630,-2061,-1606,-125,7,-74
18815,2673,-2172,-1320,-193,29,-78
18825,2728,-2323,-1297,-372,-10,-70
18835,2874,-2462,-1265,-499,25,-131
18845,2958,-2669,-1377,-633,62,-145
18856,2887,-3377,-1963,-356,-40,-56
18866,2921,-3817,-2090,127,-84,38
18876,3105,-3015,-1710,205,6,-2
18886,3262,-2138,-1770,237,67,-48
18896,3181,-2207,-1935,127,71,34
18906,3068,-2445,-2016,-127,57,130
18916,3012,-2642,-2060,-291,115,167
18926,2933,-2619,-2026,-446,153,204
18936,2912,-2558,-1572,-495,216,253
18946,2836,-2517,-1383,-597,286,293
18956,2805,-2381,-1271,-725,373,341
18966,2821,-2322,-1196,-911,481,383
18976,2834,-2469,-1212,-1038,552,434
18986,2903,-2717,-1290,-1093,571,515
18996,3101,-2824,-1133,-1164,619,570
19006,3329,-2723,-1082,-1146,650,578
19016,3372,-2672,-1062,-1055,682,631
19026,3135,-2565,-1309,-1006,716,680
19036,2879,-2577,-1542,-911,727,684
19046,2635,-2695,-1421,-982,713,715
19057,2546,-2668,-1210,-1092,694,669
19067,2511,-2550,-1305,-1001,657,633
19077,2528,-2484,-1391,-901,608,596
19087,2577,-2416,-1454,-892,558,553
19097,2546,-2414,-1471,-907,540,509
19107,2487,-2367,-1806,-992,498,452
19117,2495,-2355,-1921,-964,463,365
19127,2518,-2643,-1995,-699,443,339
19137,2539,-3036,-1882,-414,382,333
19147,2554,-3159,-1764,-149,318,294
19157,2598,-3130,-1638,114,249,292
19167,2591,-3028,-1648,310,209,308
19177,2632,-3009,-1617,471,155,329
19187,2668,-2988,-1557,631,163,357
19197,2657,-2919,-1685,617,153,343
19207,2715,-2971,-1485,610,208,334
19217,2742,-2732,-1391,434,246,309
19227,2690,-2580,-1356,275,269,299
19237,2714,-2505,-1345,89,230,274
19247,2711,-2389,-1298,-50,240,235
19257,2716,-2370,-1417,-24,215,206
19267,2697,-2447,-1191,92,200,185
19277,2694,-2401,-867,205,222,124
19287,2695,-2259,-975,236,267,89
19297,2759,-2060,-1248,75,298,99
19308,2793,-1995,-1485,-164,334,76
19318,2836,-2026,-1798,-333,385,71
19328,2801,-2080,-1705,-480,433,76
19338,2821,-1996,-1489,-625,497,0
19348,2875,-2076,-1581,-655,522,-32
19358,2823,-2082,-1881,-771,540,-21
19368,2847,-2016,-1951,-941,570,-40
19378,2688,-1780,-1988,-1266,625,-89
19388,2625,-1866,-2303,-1406,574,-107
19398,2495,-2136,-2411,-1437,555,-103
19408,2479,-2055,-2531,-1453,556,-110
19418,2487,-2031,-2368,-1336,540,-104
19428,2495,-2081,-2089,-1312,535,-133
19438,2501,-2107,-2133,-1255,528,-171
19448,2415,-2182,-2302,-1077,528,-122
19458,2368,-2239,-2336,-931,521,-122
19468,2451,-2233,-2250,-877,524,-125
19478,2542,-2193,-2187,-903,532,-108
19488,2603,-2277,-2040,-940,552,-116
19498,2580,-2306,-2064,-943,585,-160
19508,2481,-2262,-2147,-893,613,-166
19518,2389,-2265,-2260,-821,598,-151
19528,2326,-2350,-2483,-762,551,-156
19538,2293,-2499,-2752,-612,486,-159
19548,2316,-2632,-2816,-385,427,-148
19559,2383,-2599,-2743,-194,387,-121
19569,2485,-2408,-2714,-94,334,-103
19579,2588,-2274,-2674,-3,266,-55
19589,2627,-2303,-2550,18,211,-59
19599,2635,-2323,-2453,64,149,-70
19609,2542,-2327,-2352,160,92,-83
19619,2469,-2281,-2359,275,17,-121
19629,2501,-2194,-2246,305,-51,-143
19639,2564,-2031,-2334,323,-115,-171
19649,2553,-1882,-2353,296,-160,-227
19659,2583,-1928,-2362,348,-240,-287
19669,2649,-2415,-2260,560,-344,-270
19679,2936,-3290,-2163,994,-449,-157
19689,3023,-2923,-1654,1120,-379,-141
19699,3483,-2374,-1467,1313,-382,-176
19709,3459,-1952,-820,966,-181,-17
19719,3292,-1341,-1174,399,-136,-84
19729,3142,-2158,-1572,302,-136,12
19739,2962,-3023,-1386,231,-110,157
19749,2999,-3116,-1522,345,-130,146
19759,3146,-2946,-1580,551,-142,126
19769,3274,-2666,-1476,648,-94,186
19779,3204,-2379,-1478,653,-41,215
19789,3093,-2429,-1594,662,-65,247
19799,3052,-2568,-1546,702,-79,254
19810,3032,-2585,-1417,726,-55,262
19820,3003,-2447,-1276,760,-17,244
19830,3047,-2375,-1016,769,34,222
19840,3100,-2394,-991,741,77,205
19850,3135,-2430,-978,729,144,190
19860,3136,-2361,-973,735,220,164
19870,3147,-2330,-970,697,251,138
19880,3297,-2339,-1045,551,284,117
19890,3502,-2264,-1073,293,322,84
19900,3640,-2208,-1163,94,370,58
19910,3658,-2322,-1068,-12,410,80
19920,3535,-2280,-951,-136,434,66
19930,3535,-2442,-1038,-145,390,57
19940,3477,-2736,-1117,-183,324,108
19950,3433,-2862,-1445,-170,259,95
19960,3423,-2888,-1620,-48,183,67
19970,3395,-2819,-1572,35,150,40
19980,3367,-2714,-1384,31,121,28
19990,3330,-2610,-1360,-36,99,12
20000,3267,-2636,-1447,-53,73,14
20010,3208,-2684,-1537,-41,50,36
20020,3141,-2673,-1628,13,36,59
20030,3151,-2674,-1565,94,27,71
20040,3173,-2643,-1367,92,23,83
20050,3163,-2350,-1152,-29,68,46
20061,3105,-2437,-1271,91,88,104
20071,3004,-2427,-1361,-10,78,121
20081,2999,-2403,-1515,16,97,136
20091,3043,-2469,-1520,32,92,189
20101,3114,-2419,-1435,36,97,195
20111,3193,-2386,-1366,92,125,170
20121,3225,-2471,-1195,110,160,187
20131,3203,-2280,-1299,3,206,202
20141,3209,-2235,-1413,-26,215,205
20151,3196,-2470,-1386,-48,236,245
20161,3154,-2591,-1316,-33,251,234
20171,3170,-2539,-1226,-6,269,238
20181,3183,-2500,-1291,-21,281,261
20191,3190,-2550,-1389,-74,290,286
20201,3177,-2623,-1452,-87,287,310
20211,3129,-2661,-1428,-72,295,324
20221,3121,-2639,-1308,-57,283,335
20231,3118,-2601,-1149,-70,282,364
20241,3070,-2580,-1076,-103,274,368
20251,3034,-2594,-1123,-151,255,377
20262,2950,-2653,-1217,-168,233,410
20272,2952,-2782,-1119,-137,198,441
20282,2925,-2716,-1088,-81,174,455
20292,2939,-2576,-1012,-57,158,463
20302,2914,-2513,-1036,-56,138,489
20312,2892,-2596,-998,-68,132,513
20322,2828,-2621,-993,-91,134,534
20332,2778,-2651,-952,-90,125,531
20342,2788,-2635,-971,-115,111,512
20352,2839,-2572,-1001,-166,117,496
20362,2850,-2592,-944,-222,136,500
20372,2890,-2666,-989,-333,162,519
20382,2905,-2854,-1112,-331,143,545
20392,2879,-3113,-1097,-260,150,579
20402,2905,-3155,-870,-231,165,583
20412,2963,-2976,-761,-211,165,552
20422,3033,-2832,-674,-183,191,563
20432,3020,-2875,-781,-145,237,595
20442,2930,-2809,-804,-82,301,600
20452,2852,-2684,-769,-88,336,581
20463,2818,-2801,-743,-143,337,602
20473,2794,-3049,-800,-240,350,632
20483,2802,-3021,-611,-286,378,644
20493,2870,-2545,-369,-371,416,615
20503,3058,-2845,-435,-415,405,793
20513,2754,-3239,-631,-657,433,877
20523,2783,-3593,-583,-609,461,816
20533,2738,-3494,-628,-638,451,876
20543,2716,-3047,-721,-641,435,823
20553,2720,-2800,-835,-644,452,821
20563,2590,-3020,-600,-651,495,957
20573,2357,-3256,-494,-586,453,979
20583,2363,-3444,-483,-445,400,999
20593,2468,-3682,-597,-329,342,1064
20603,2445,-3625,-741,-291,363,1081
20613,2368,-3361,-869,-276,402,1051
20623,2248,-3265,-1005,-322,378,1103
20633,2128,-3375,-1122,-328,334,1154
20643,2021,-3466,-1227,-230,274,1147
20653,1982,-3282,-1181,-76,236,1110
20664,2030,-3105,-1100,44,168,1088
20674,2047,-3076,-1115,86,124,1095
20684,1989,-3008,-1099,110,102,1022
20694,1969,-2739,-1187,153,88,953
20704,1901,-2521,-1155,172,57,960
20714,1819,-2428,-1126,102,-12,1026
20724,1905,-2548,-896,149,-50,1059
20734,1839,-2720,-548,88,14,1128
20744,1907,-2772,-454,30,11,1061
20754,1989,-2934,-606,-39,98,1038
20764,2046,-3427,-1114,-74,111,1018
20774,2025,-3614,-1150,-92,262,944
20784,2366,-3296,-1425,165,394,702
20794,2175,-3272,-1205,342,588,736
20804,1930,-3273,-747,379,685,545
20814,2074,-3449,-310,680,680,396
20824,2401,-3721,209,940,687,392
20834,2952,-3767,777,1104,798,264
20844,3463,-3370,935,1117,1111,146
20854,3458,-2705,574,953,1502,168
20865,3234,-2488,-90,663,1745,326
20875,2953,-2901,-416,283,1835,485
20885,2876,-3445,-557,4,1886,518
20895,2798,-3684,-593,-50,1971,546
20905,2634,-3448,-390,-151,2061,564
20915,2391,-2781,-166,-208,2096,520
20925,2413,-2064,-35,-210,1996,315
20935,2640,-1378,-153,-602,2000,324
20945,2841,-1415,-590,-903,1968,339
20955,2983,-2154,-960,-1144,2037,379
20965,2808,-3094,-1119,-927,2150,378
20975,2537,-3721,-1167,-405,2227,296
20985,2272,-3810,-1173,260,2301,164
20995,2086,-3546,-1088,831,2367,24
21005,1973,-3090,-837,1172,2386,-141
21015,1961,-2687,-574,1280,2368,-332
21025,1963,-2446,-382,1175,2361,-464
21035,1829,-2398,-419,908,2318,-543
21045,1633,-2496,-703,621,2231,-638
21055,1442,-2786,-1146,452,2138,-741
21066,1256,-3173,-1459,313,2051,-833
21076,1122,-3449,-1780,94,1947,-917
21086,1040,-3644,-2049,-54,1829,-978
21096,996,-3843,-2260,-129,1688,-986
21106,957,-4041,-2307,-112,1531,-975
21116,962,-4205,-2327,-21,1346,-961
21126,1055,-4359,-2282,124,1186,-941
21136,1144,-4378,-2166,180,1052,-871
21146,1217,-4339,-2108,260,919,-770
21156,1251,-4372,-1992,385,787,-626
21166,1267,-4454,-1831,384,662,-459
21176,1275,-4462,-1798,343,539,-331
21186,1271,-4358,-1727,312,443,-229
21196,1243,-4220,-1547,216,390,-128
21206,1131,-4092,-1352,30,341,-22
21216,1021,-3929,-1143,-208,274,61
21226,966,-3805,-1020,-428,185,113
21236,976,-3772,-899,-533,105,162
21246,1048,-3899,-737,-565,26,227
21256,1092,-4106,-646,-566,-39,329
21267,1127,-4321,-579,-574,-76,434
21277,1095,-4460,-600,-566,-113,509
21287,1117,-4450,-565,-477,-131,563
21297,1104,-4451,-418,-412,-147,644
21307,1046,-4429,-296,-442,-151,716
21317,949,-4312,-168,-500,-162,753
21327,866,-4192,-60,-533,-177,758
21337,750,-4134,13,-571,-201,747
21347,664,-4214,184,-687,-252,753
21357,636,-4297,260,-777,-337,773
21367,623,-4510,324,-773,-420,778
21377,679,-4757,212,-693,-497,773
21387,767,-5041,219,-550,-539,801
21397,827,-5189,104,-358,-587,845
21407,869,-5189,91,-83,-602,871
21417,927,-5026,175,122,-596,894
21427,966,-4727,241,239,-602,926
21437,979,-4289,354,264,-600,963
21447,994,-3948,451,236,-620,984
21457,1028,-3741,564,165,-610,982
21468,1072,-3667,476,37,-598,973
21478,1126,-3668,408,-82,-562,962
21488,1138,-3674,222,-255,-521,927
21498,1190,-3711,139,-358,-483,884
21508,1201,-3774,66,-429,-467,831
21518,1286,-3868,119,-406,-446,766
21528,1375,-3936,313,-384,-380,726
21538,1443,-3878,572,-406,-283,688
21548,1511,-3736,602,-489,-170,651
21558,1459,-3683,419,-540,-48,640
21568,1323,-3839,106,-576,67,634
21578,1078,-4005,-377,-539,150,571
21588,920,-4264,-502,-398,202,476
21598,861,-4476,-388,-324,214,403
21608,836,-4464,-309,-263,214,299
21618,923,-4502,-298,-79,219,201
21628,1051,-4598,33,-29,276,144
21638,1127,-4576,159,-153,322,129
21648,1228,-4378,331,-338,388,123
21658,1243,-4151,110,-538,415,136
21669,1248,-4272,-495,-425,377,200
21679,1283,-4713,-521,-290,389,339
21689,1123,-4837,-470,-215,384,441
21699,1027,-4503,30,-1,425,513
21709,957,-4133,316,291,375,654
21719,959,-3954,664,389,325,834
21729,958,-3755,596,317,298,962
21739,921,-3503,-209,355,269,1021
21749,1014,-3513,410,421,380,1027
21759,916,-2889,-410,44,334,951
21769,1042,-2768,-359,189,448,889
21779,1094,-3101,-14,-36,459,954
21789,1123,-3263,26,-372,511,920
21799,1327,-3388,-65,-429,552,890
21809,1609,-3591,-12,-461,642,953
21819,1705,-3742,-193,-640,717,1039
21829,1554,-3861,-492,-721,840,1047
21839,1294,-4193,-332,-689,970,1114
21849,891,-4247,-249,-833,1050,1212
21859,612,-3915,-202,-917,1125,1217
21870,466,-3389,-122,-1160,1136,1279
21880,423,-2950,-359,-1471,1157,1351
21890,332,-3251,-706,-1517,1138,1389
21900,270,-3568,-972,-1604,1132,1376
21910,311,-3850,-1002,-1254,1126,1326
21920,268,-3924,-644,-1097,1124,1355
21930,263,-3420,-346,-993,1165,1263
21940,281,-3111,-204,-899,1172,1217
21950,165,-2980,-319,-1015,1160,1171
21960,148,-3035,-190,-917,1140,1093
21970,-23,-3176,-269,-719,1144,1000
21980,-207,-3432,-507,-191,1122,880
21990,-232,-3819,-281,419,1097,814
22000,-200,-3834,-243,898,1049,733
22010,-124,-3610,-188,1215,1048,646
22020,-70,-3253,-315,1221,1008,582
22030,-49,-3113,-293,1093,980,514
22040,-173,-3260,-373,963,976,443
22050,-418,-3460,-444,827,972,398
22060,-602,-3545,-567,695,930,375
22071,-702,-3513,-729,584,843,332
22081,-686,-3438,-762,459,745,282
22091,-629,-3385,-821,326,634,229
22101,-564,-3338,-836,193,554,201
22111,-609,-3317,-907,86,510,171
22121,-695,-3369,-1057,19,477,133
22131,-787,-3491,-1174,-60,423,96
22141,-775,-3503,-1034,-209,353,37
22151,-738,-3373,-973,-351,280,-37
22161,-649,-3349,-1009,-377,239,-106
22171,-615,-3577,-1120,-376,231,-145
22181,-677,-3856,-1278,-347,241,-174
22191,-801,-4110,-1383,-249,251,-243
22201,-848,-4373,-1523,-113,242,-343
22211,-750,-4588,-1659,-41,229,-404
22221,-647,-4744,-1813,-68,219,-448
22231,-520,-4881,-1928,-143,206,-494
22241,-396,-5054,-1954,-176,191,-537
22251,-267,-5208,-1895,-146,158,-542
22261,-182,-5190,-1741,-71,144,-507
22271,-200,-5011,-1696,53,138,-479
22281,-219,-4786,-1638,148,102,-451
22291,-214,-4473,-1481,213,3,-414
22301,-154,-4196,-1317,375,-83,-420
22311,-106,-3974,-1255,503,-129,-438
22322,-143,-3735,-1195,511,-138,-426
22332,-272,-3519,-1236,467,-173,-420
22342,-378,-3328,-1188,416,-210,-415
22352,-466,-3144,-1069,303,-233,-392
22362,-536,-3031,-869,129,-264,-374
22372,-526,-3062,-615,-67,-332,-392
22382,-376,-3304,-668,-144,-407,-414
22392,-191,-3709,-899,-189,-439,-416
22402,-54,-4021,-1056,-265,-443,-398
22412,-29,-4137,-1208,-300,-418,-386
22422,-61,-4124,-1291,-289,-399,-367
22432,-113,-4082,-1445,-230,-406,-353
22442,-116,-4066,-1481,-170,-401,-332
22452,-59,-3994,-1523,-148,-404,-305
22462,-7,-3950,-1543,-157,-387,-278
22472,28,-3942,-1327,-153,-358,-260
22482,61,-3917,-1020,-165,-346,-215
22492,206,-3902,-733,-119,-382,-161
22502,363,-3859,-738,-3,-362,-125
22512,435,-3856,-851,170,-299,-97
22522,320,-3783,-1097,287,-211,-62
22532,136,-3703,-1221,386,-178,-30
22542,38,-3675,-1184,391,-186,-11
22552,47,-3638,-1159,360,-196,-12
22562,92,-3618,-1137,348,-181,-8
22573,108,-3541,-1082,324,-147,-3
22583,101,-3402,-1068,320,-99,5
22593,83,-3323,-866,301,-43,31
22603,43,-3321,-382,146,-1,72
22613,24,-3370,-375,67,-17,107
22623,46,-3627,-524,110,10,109
22633,96,-3851,-750,185,57,120
22643,128,-3886,-802,205,105,137
22653,77,-3781,-821,166,140,123
22663,62,-3703,-872,136,177,113
22673,13,-3733,-940,76,214,111
22683,-3,-3858,-1016,-5,233,131
22693,19,-4033,-1014,-62,233,144
22703,15,-4220,-981,-49,238,143
22713,35,-4376,-961,22,256,148
22723,9,-4457,-990,114,272,161
22733,-33,-4524,-986,171,292,168
22743,-86,-4569,-976,172,332,162
22753,-175,-4624,-993,114,378,143
22763,-254,-4725,-993,85,398,100
22773,-243,-4830,-1088,74,404,74
22783,-210,-4837,-1181,84,394,53
22793,-147,-4835,-1219,86,357,43
22803,-142,-4889,-1113,22,333,71
22813,-227,-4875,-1002,-93,311,136
22824,-384,-4869,-827,-122,262,192
22834,-465,-4856,-627,-103,191,252
22844,-541,-4729,-573,-72,130,327
22854,-575,-4460,-503,-1,89,398
22864,-610,-4131,-342,27,53,461
22874,-650,-3895,-265,41,8,514
22884,-649,-3785,-251,75,-33,534
22894,-639,-3782,-359,94,-58,549
22904,-675,-3778,-447,69,-66,566
22914,-743,-3751,-395,48,-95,555
22924,-685,-3855,-360,61,-152,534
22934,-587,-4107,-407,71,-182,523
22944,-480,-4304,-449,61,-173,516
22954,-490,-4385,-411,68,-164,501
22964,-523,-4384,-345,68,-145,484
22974,-568,-4360,-340,41,-122,477
22984,-606,-4355,-496,-26,-109,484
22994,-671,-4242,-659,-117,-106,515
23004,-725,-4129,-889,-162,-151,532
23014,-772,-4102,-945,-109,-220,543
23024,-777,-4098,-908,-24,-299,553
23034,-754,-4053,-827,73,-371,568
23044,-773,-3916,-672,156,-402,565
23054,-820,-3727,-516,174,-419,545
23064,-944,-3529,-347,157,-431,498
23075,-993,-3310,-279,106,-424,456
23085,-1101,-3043,-157,43,-398,429
23095,-1212,-2789,-320,-33,-388,371
23105,-1310,-2664,-448,-65,-405,292
23115,-1321,-2707,-354,-93,-465,238
23125,-1236,-2905,-328,-72,-520,179
23135,-1141,-3088,-151,-75,-535,129
23145,-1151,-3104,-206,-126,-533,79
23155,-1242,-2921,-201,-180,-512,54
23165,-1327,-2774,-448,-168,-533,0
23175,-1315,-2919,-510,-100,-561,-75
23185,-1296,-3188,-598,-97,-585,-130
23195,-1248,-3331,-801,-30,-581,-154
23205,-1219,-3384,-893,78,-572,-180
23215,-1150,-3463,-1002,225,-587,-220
23225,-978,-3583,-957,225,-586,-254
23235,-783,-3491,-993,101,-582,-262
23245,-557,-3243,-1072,-79,-571,-257
23255,-444,-3094,-1231,-220,-587,-289
23265,-317,-3206,-1366,-241,-641,-349
23276,-138,-3440,-1317,-244,-666,-364
23286,-51,-3552,-1223,-185,-680,-396
23296,25,-3550,-904,-154,-653,-433
23306,52,-3325,-674,-157,-605,-468
23316,58,-3095,-696,-167,-561,-545
23326,168,-2809,-701,-329,-502,-573
23336,263,-2656,-930,-548,-485,-615
23346,339,-2628,-1343,-820,-466,-686
23356,463,-2867,-1424,-1019,-409,-730
23366,577,-3196,-1577,-1133,-373,-772
23376,827,-3504,-1311,-1227,-332,-879
23386,1104,-3637,-1301,-1422,-276,-941
23396,1210,-3685,-1207,-1590,-175,-998
23406,1197,-3648,-1159,-1803,-85,-1040
23416,1066,-3573,-1372,-2012,-6,-1053
23426,902,-3286,-2086,-2120,49,-1041
23436,838,-3115,-2504,-2111,65,-1020
23446,996,-3335,-2759,-2024,31,-1063
23456,1236,-3656,-2769,-1926,37,-1102
23466,1375,-3859,-2659,-1848,63,-1099
23477,1394,-3779,-2379,-1702,71,-1083
23487,1388,-3405,-2169,-1573,55,-1126
23497,1336,-3169,-1984,-1324,24,-1137
23507,1350,-3443,-1847,-1028,-31,-1086
23517,1369,-3535,-1802,-815,-54,-1065
23527,1436,-3464,-1891,-640,-68,-1049
23537,1322,-3366,-2490,-403,-115,-1090
23547,1438,-3272,-2615,-256,-139,-1042
23557,1513,-3432,-2794,103,-193,-1008
23567,1680,-3698,-2557,332,-253,-977
23577,1747,-3729,-2440,466,-267,-935
23587,1721,-3568,-2252,665,-292,-914
23597,1721,-3452,-2154,757,-315,-873
23607,1785,-3379,-2005,674,-322,-797
23617,1837,-3114,-1938,475,-318,-764
23627,1857,-3016,-1781,366,-312,-756
23637,1792,-3166,-1617,379,-321,-749
23647,1750,-3217,-1482,455,-325,-757
23657,1730,-3169,-1424,617,-303,-760
23667,1669,-3109,-1342,666,-295,-746
23678,1699,-3008,-1411,698,-315,-763
23688,1784,-3139,-1340,697,-316,-768
23698,1754,-3244,-1286,665,-281,-773
23708,1732,-3247,-1326,608,-263,-765
23718,1724,-3257,-1407,529,-255,-739
23728,1715,-3327,-1489,466,-252,-703
23738,1772,-3434,-1512,451,-262,-659
23748,1847,-3496,-1615,363,-269,-609
23758,1882,-3534,-1686,294,-279,-588
23768,1889,-3627,-1725,267,-302,-600
23778,1856,-3648,-1594,276,-304,-604
23788,1855,-3481,-1480,200,-303,-603
23798,1824,-3304,-1570,68,-287,-589
23808,1738,-3296,-1532,4,-301,-607
23818,1725,-3317,-1495,-104,-332,-600
23828,1713,-3269,-1461,-147,-341,-598
23838,1751,-3305,-1362,-168,-339,-591
23848,1739,-3464,-1250,-155,-346,-612
23858,1674,-3643,-1251,-82,-310,-619
23868,1622,-3635,-1242,-55,-270,-606
23879,1608,-3599,-1300,-37,-239,-602
23889,1792,-3399,-931,-35,-221,-540
23899,2201,-3650,-975,381,-230,-628
23909,2078,-4828,-418,761,-152,-484
23919,1221,-4831,-1203,240,-5,-315
23929,840,-4556,-1699,158,-35,-297
23939,1017,-4103,-2000,136,-124,-332
23949,1595,-3597,-1431,6,-128,-326
23959,2059,-3805,-1249,277,-94,-370
23969,1838,-4439,-1096,219,103,-328
23979,1086,-4382,-1758,74,152,-291
23989,1115,-4221,-1580,372,-7,-398
23999,1546,-4497,-977,638,-116,-435
24009,1424,-3997,-1384,472,-41,-456
24019,1374,-3968,-1144,677,-81,-499
24029,1279,-4160,-1335,641,-103,-474
24039,1232,-4456,-1377,802,-121,-473
24049,1281,-4544,-1522,990,-137,-471
24059,1357,-4719,-1589,1358,-178,-446
24069,1370,-4956,-1744,1725,-187,-381
24080,1491,-5158,-1379,2257,-211,-371
24090,1649,-4155,-304,2224,133,-607
24100,1788,-3917,-616,2660,165,-748
24110,1690,-3819,64,2545,191,-484
24120,1710,-3076,-201,2757,281,-779
24130,1735,-3237,-400,3060,130,-726
24140,2099,-3328,-555,2795,-103,-316
24150,2232,-3183,-637,2460,-110,-362
24160,2155,-3856,-353,2260,-91,-381
24170,2154,-4364,-490,1843,-214,-205
24180,2002,-4320,-521,1511,-188,-230
24190,1969,-4289,-583,1629,-210,-228
24200,1792,-4230,-452,1713,-255,-183
24210,1766,-3888,-575,1868,-302,-262
24220,1841,-3752,-475,2318,-284,-302
24230,1767,-3809,-572,2866,-275,-381
24240,2517,-3296,687,3348,-262,-248
24250,2668,-1625,1732,2998,-46,-491
24260,2676,-1375,1439,3018,121,-731
24270,1952,-2119,1949,2587,264,-467
24281,1708,-2257,1393,2209,220,-592
24291,1740,-2472,1203,2302,238,-687
24301,1818,-2638,942,2252,124,-745
24311,2012,-2846,872,2166,74,-766
24321,2243,-2892,822,2010,48,-794
24331,2290,-2694,1143,1604,104,-790
24341,2251,-2189,1340,971,168,-844
24351,2237,-1704,1524,290,163,-709
24361,2365,-1720,1624,-243,111,-647
24371,2623,-2358,1443,-641,72,-555
24381,2570,-3271,950,-698,91,-377
24391,2271,-4101,629,-578,136,-276
24401,2064,-3917,498,-507,105,-473
24411,2379,-3107,252,-165,28,-549
24421,2202,-2587,248,160,43,-494
24431,2156,-2432,327,355,-16,-458
24441,2134,-2789,354,434,-101,-492
24451,2268,-3300,327,653,-124,-520
24461,2346,-3667,504,986,-123,-485
24471,2489,-3464,684,1201,-96,-497
24482,2496,-3040,737,1393,-80,-502
24492,2424,-2876,881,1606,-71,-498
24502,2362,-2972,1052,1734,-83,-497
24512,2364,-3049,1224,1846,-107,-455
24522,2446,-2987,1607,1885,-130,-414
24532,2476,-2620,1958,1653,-102,-392
24542,2689,-2198,2430,1336,-70,-401
24552,2885,-1683,3220,544,-17,-373
24562,3283,-1862,2499,-46,-108,-43
24572,3027,-3137,2810,-669,133,156
24582,2946,-3944,2351,-1178,116,239
24592,3093,-4019,2289,-1245,180,128
24602,3065,-3725,2063,-1077,196,190
24612,3366,-3366,2043,-908,162,265
24622,3206,-3196,1730,-807,289,389
24632,3186,-3086,1540,-603,286,462
24642,3045,-3137,1362,-327,337,533
24652,3105,-3150,1436,58,343,615
24662,3197,-3194,1777,409,414,704
24672,3218,-3290,1781,648,440,786
24683,3276,-3490,1798,919,517,827
24693,3537,-3669,1938,1169,579,888
24703,3645,-3667,1915,1302,606,939
24713,3772,-3344,1881,1459,629,958
24723,3931,-2970,1659,1621,649,1013
24733,4044,-2673,1561,1661,657,1117
24743,4100,-2487,1466,1620,652,1240
24753,4124,-2482,1482,1495,675,1377
24763,4113,-2544,1427,1407,745,1508
24773,4099,-2715,1729,1445,802,1618
24783,4032,-2790,1897,1483,850,1692
24793,3851,-2868,2121,1587,894,1730
24803,3590,-2932,2216,1639,893,1752
24813,3314,-2984,2163,1637,859,1750
24823,3129,-2931,2082,1597,830,1728
24833,2990,-2803,2052,1478,800,1689
24843,2810,-2568,2002,1217,748,1667
24853,2583,-2421,1997,926,696,1641
24863,2355,-2400,2013,543,609,1617
24873,2114,-2477,1943,158,496,1579
24884,1914,-2620,1899,-230,385,1551
24894,1763,-2674,1823,-699,300,1517
24904,1600,-2740,1672,-1113,244,1458
24914,1357,-2822,1569,-1494,185,1378
24924,1103,-2892,1303,-1819,90,1294
24934,831,-2863,955,-2037,-9,1182
24944,634,-2879,607,-2159,-110,1055
24954,486,-2943,418,-2219,-200,939
24964,425,-3142,506,-2326,-266,835
24974,379,-3209,498,-2531,-335,768
24984,231,-3136,316,-2538,-389,637
24994,143,-3084,293,-2332,-437,443
25004,131,-3089,366,-2168,-461,285
25014,50,-3027,224,-2065,-476,183
25024,-48,-2980,284,-1822,-468,70
25034,-125,-2997,463,-1604,-472,-51
25044,-170,-3024,606,-1419,-462,-176
25054,-164,-2999,772,-1276,-444,-283
25064,-120,-2917,887,-1127,-408,-389
25074,-36,-3000,1080,-968,-332,-496
25085,0,-3097,1155,-912,-255,-588
25095,33,-3183,1149,-808,-145,-687
25105,114,-3312,1218,-643,-44,-785
25115,119,-3381,1171,-443,38,-827
25125,158,-3306,1175,-235,126,-897
25135,208,-3115,1204,-149,232,-973
25145,202,-2927,1236,-180,343,-1032
25155,180,-2767,1292,-366,401,-1089
25165,213,-2729,1436,-633,389,-1154
25175,341,-2832,1858,-907,338,-1204
25185,581,-3071,2286,-1226,285,-1238
25195,889,-3386,2492,-1490,256,-1275
25205,1131,-3737,2450,-1604,264,-1285
25215,1298,-3946,2309,-1550,296,-1297
25225,1463,-3969,2233,-1456,371,-1303
25235,1564,-3740,2112,-1519,486,-1241
25245,1537,-3360,1817,-1576,600,-1178
25255,1485,-3011,1799,-1594,671,-1158
25265,1479,-2867,1835,-1653,714,-1182
25275,1559,-2866,1848,-1727,787,-1221
25286,1612,-2941,1860,-1810,900,-1244
25296,1605,-2977,1834,-1901,1030,-1275
25306,1575,-2949,1876,-1969,1177,-1316
25316,1536,-2971,1933,-1962,1315,-1371
25326,1535,-3246,1831,-1927,1424,-1409
25336,1584,-3574,1596,-1934,1546,-1401
25346,1678,-3811,1371,-1836,1665,-1398
25356,1751,-3906,1215,-1659,1811,-1422
25366,1763,-3925,1160,-1452,1983,-1454
25376,1640,-3912,1263,-1256,2147,-1437
25386,1433,-3839,1361,-1175,2254,-1421
25396,1303,-3784,1541,-1227,2350,-1432
25406,1155,-3872,1682,-1330,2425,-1425
25416,1086,-4217,1799,-1551,2494,-1383
25426,1053,-4475,1758,-1824,2540,-1300
25436,1037,-4607,1614,-2002,2532,-1229
25446,1003,-4668,1370,-2020,2497,-1189
25456,930,-4719,1196,-1969,2458,-1119
25466,768,-4768,954,-1844,2439,-1023
25476,616,-4854,854,-1736,2427,-894
25487,499,-4938,735,-1725,2384,-735
25497,440,-4862,596,-1745,2289,-561
25507,467,-4743,428,-1662,2141,-451
25517,566,-4729,364,-1489,1998,-354
25527,662,-4826,257,-1270,1867,-248
25537,667,-5019,125,-987,1748,-155
25547,688,-5189,26,-720,1615,-73
25557,777,-5188,-25,-487,1511,19
25567,847,-4985,-172,-221,1408,103
25577,840,-4539,-245,25,1280,120
25587,882,-4010,-316,221,1174,75
25597,957,-3649,-323,330,1046,71
25607,1015,-3420,-194,228,958,118
25617,1066,-3293,-169,29,813,122
25627,1207,-3303,-160,-91,669,63
25637,1302,-3454,-290,-83,537,24
25647,1334,-3511,-133,2,427,19
25657,1376,-3453,-205,-12,355,-24
25667,1477,-3340,-348,50,259,-71
25677,1570,-3202,-442,-22,170,-70
25688,1683,-3085,-467,-79,50,-107
25698,1842,-2940,-365,-116,-61,-177
25708,2002,-2855,-339,-107,-173,-235
25718,2148,-2791,-263,-170,-260,-243
25728,2222,-2673,-266,-271,-362,-270
25738,2409,-2590,-196,-321,-471,-316
25748,2647,-2559,-240,-490,-579,-333
25758,2868,-2482,-424,-801,-622,-312
25768,3014,-2436,-660,-1061,-658,-310
25778,3094,-2604,-782,-1298,-683,-291
25788,3082,-2850,-855,-1514,-720,-268
25798,3081,-3143,-815,-1616,-781,-285
25808,3187,-3231,-678,-1618,-816,-322
25818,3331,-3167,-642,-1482,-865,-317
25828,3558,-3190,-609,-1290,-874,-235
25838,3673,-3381,-746,-1140,-868,-99
25848,3650,-3508,-1102,-957,-840,-19
25858,3725,-3284,-1023,-798,-759,-14
25868,4027,-2814,-479,-936,-632,-28
25878,4174,-2712,-565,-1214,-538,134
25889,4008,-2982,-418,-1405,-403,250
25899,3609,-3463,-324,-1590,-396,225
25909,3245,-3627,-501,-1589,-420,173
25919,2912,-3295,-878,-1346,-519,128
25929,2898,-2932,-858,-1016,-599,101
25939,2907,-2579,-594,-1008,-594,96
25949,2891,-2388,-584,-1194,-562,55
25959,2768,-2500,-689,-1360,-500,19
25969,2570,-3046,-988,-1491,-487,-18
25979,2350,-3701,-1307,-1590,-485,-38
25989,2287,-4344,-1345,-1357,-555,-75
25999,2331,-4955,-1321,-855,-624,-66
26009,2203,-5075,-1008,-487,-552,-83
26019,2107,-4637,-1091,-264,-564,-119
26029,2163,-3801,-736,-181,-473,-39
26039,2042,-2524,-640,-288,-368,-94
26049,2113,-1819,-685,-451,-405,-187
26059,2150,-2243,-881,-660,-493,-126
26069,2216,-3265,-1357,-548,-614,-157
26079,2302,-4258,-1505,-210,-647,-214
26090,2267,-4465,-1618,214,-689,-253
26100,2409,-4149,-1553,653,-755,-342
26110,2724,-3917,-1386,862,-811,-337
26120,3041,-4237,-1412,871,-822,-260
26130,3065,-4615,-1522,902,-850,-136
26140,3004,-4536,-1695,1087,-864,-121
26150,2894,-4130,-1740,1315,-865,-128
26160,2692,-3475,-1460,1432,-852,-100
26170,2430,-3237,-1530,1598,-909,-106
26180,2366,-3431,-1461,1559,-1015,-94
26190,2428,-3489,-1931,1536,-1122,-114
26200,2568,-3762,-2023,1608,-1226,-120
26210,2661,-4029,-1915,1583,-1339,-83
26220,2648,-4145,-1909,1628,-1443,-81
26230,2599,-3919,-1926,1575,-1485,-55
26240,2380,-3469,-2053,1479,-1518,-26
26250,2110,-3307,-2149,1405,-1588,4
26260,1943,-3467,-2115,1323,-1703,38
26270,1897,-3549,-2022,1241,-1820,43
26280,1974,-3603,-2091,1253,-1916,7
26291,2006,-3720,-2187,1277,-1980,31
26301,1973,-3656,-2062,1246,-2015,73
26311,1897,-3210,-2049,1207,-2029,107
26321,1714,-3040,-2125,1207,-2035,121
26331,1534,-3227,-2053,1069,-2079,182
26341,1450,-3296,-2072,1000,-2131,196
26351,1482,-3350,-2122,1043,-2168,185
26361,1458,-3402,-2163,1053,-2188,213
26371,1383,-3128,-2048,955,-2199,225
26381,1366,-2747,-1994,871,-2214,194
26391,1303,-2708,-1930,792,-2226,231
26401,1168,-2821,-1904,648,-2240,258
26411,1084,-2938,-1950,576,-2283,236
26421,1112,-3152,-2083,589,-2336,210
26431,1185,-3239,-2081,553,-2381,207
26441,1273,-3016,-1924,566,-2410,191
26451,1324,-2944,-1793,647,-2426,169
26461,1293,-2946,-1730,639,-2418,178
26471,1239,-2816,-1752,558,-2407,161
26481,1155,-2727,-1893,501,-2397,118
26492,1115,-2844,-1835,427,-2414,106
26502,1124,-3019,-1871,346,-2444,108
26512,1194,-3152,-1847,375,-2465,91
26522,1271,-3105,-1622,457,-2467,61
26532,1346,-2968,-1535,541,-2452,28
26542,1352,-2819,-1637,503,-2405,17
26552,1228,-2685,-1805,430,-2388,-8
26562,1238,-2747,-1769,397,-2367,-53
26572,1282,-2912,-1812,322,-2403,-67
26582,1341,-3096,-1801,331,-2392,-100
26592,1440,-3432,-1641,404,-2371,-82
26602,1529,-3546,-1358,412,-2295,-74
26612,1549,-3562,-1260,458,-2218,-72
26622,1421,-3518,-1227,598,-2115,-76
26632,1228,-3391,-1167,741,-2026,-80
26642,1008,-3107,-1093,852,-1926,-105
26652,966,-2766,-897,846,-1864,-149
26662,1042,-2644,-799,812,-1816,-171
26672,1089,-2887,-682,856,-1774,-179
26682,1079,-3224,-643,931,-1724,-214
26693,1050,-3589,-788,1277,-1659,-254
26703,985,-4025,-1012,1639,-1584,-262
26713,903,-4296,-1098,1875,-1510,-253
26723,817,-4368,-1284,2004,-1481,-270
26733,754,-4351,-1230,2002,-1448,-263
26743,670,-4240,-1316,1907,-1407,-237
26753,933,-4492,-563,2204,-1265,-172
26763,1201,-5107,96,2705,-1156,-7
26773,1336,-5449,-146,3305,-1041,85
26783,1476,-5398,-28,3755,-828,144
26793,1365,-4899,-279,3886,-627,201
26803,1238,-4463,-650,4105,-446,314
26813,1012,-4294,-601,4176,-350,533
26823,679,-4223,-964,4117,-351,648
26833,465,-4318,-1244,4237,-417,633
26843,351,-4449,-1310,4327,-471,605
26853,396,-4388,-1170,4425,-511,616
26863,522,-4102,-956,4482,-453,673
26873,602,-3827,-187,4329,-318,748
26883,682,-3409,1009,3685,-188,826
26894,726,-2863,1958,2722,-123,947
26904,702,-2454,2488,1607,-102,1092
26914,656,-2322,2676,241,-90,1235
26924,510,-2252,2387,-1172,-53,1323
26934,377,-2319,1755,-2104,-53,1366
26944,220,-2697,1005,-2548,-89,1447
26954,63,-3219,304,-2955,-156,1596
26964,-119,-3552,-243,-3343,-239,1674
26974,-310,-3751,-794,-3525,-412,1611
26984,-389,-3963,-1262,-3483,-555,1511
26994,-457,-4186,-1622,-3226,-710,1418
27004,-482,-4487,-1669,-2782,-865,1292
27014,-529,-4786,-1583,-2259,-1027,1194
27024,-459,-4906,-1365,-1659,-1143,1080
27034,-361,-4689,-1059,-1138,-1197,961
27044,-242,-4234,-944,-699,-1228,854
27054,-171,-3822,-729,-308,-1241,758
27064,-181,-3481,-492,-54,-1257,656
27074,-144,-3251,-376,109,-1320,542
27084,-56,-3200,-237,177,-1362,466
27095,2,-3197,-100,61,-1320,456
27105,-19,-3145,-153,-156,-1281,453
27115,-66,-3111,-137,-284,-1270,404
27125,-99,-3128,-152,-459,-1289,338
27135,-122,-3185,-178,-617,-1319,283
27145,-136,-3288,-178,-761,-1348,224
27155,-126,-3451,-72,-863,-1377,154
27165,-139,-3634,-69,-893,-1402,64
27175,-89,-3885,-41,-847,-1414,-23
27185,-109,-4074,-142,-739,-1416,-102
27195,-125,-4151,-9,-518,-1422,-176
27205,-98,-4171,117,-322,-1479,-237
27215,-39,-4163,150,-186,-1510,-258
27225,-36,-4182,63,-61,-1555,-253
27235,-44,-4281,16,27,-1585,-230
27245,-69,-4467,-107,100,-1599,-194
27255,-116,-4570,-140,127,-1614,-154
27265,-136,-4483,-93,189,-1674,-121
27275,-106,-4318,100,299,-1727,-93
27285,-74,-4123,269,311,-1734,-50
27295,-89,-3974,208,285,-1735,11
27305,-119,-3837,-29,287,-1768,66
27315,-100,-3791,-95,373,-1793,148
27325,-24,-3950,54,451,-1815,276
27335,49,-4238,332,509,-1794,409
27346,63,-4493,527,512,-1745,486
27356,34,-4608,678,533,-1634,482
27366,-11,-4531,883,605,-1587,379
27376,54,-4306,929,564,-1539,365
27386,-3,-4020,745,468,-1481,430
27396,-134,-3746,836,305,-1451,409
27406,-153,-3494,526,38,-1495,327
27416,-76,-3463,96,2,-1473,324
27426,-52,-3601,-256,147,-1475,436
27436,-60,-3893,-307,469,-1490,515
27446,-71,-4328,39,747,-1529,584
27456,-59,-4658,257,885,-1562,632
27466,-47,-4738,366,1023,-1603,689
27476,-87,-4705,513,1199,-1587,737
27486,-147,-4621,780,1392,-1555,731
27496,-164,-4419,746,1572,-1523,673
27506,-150,-4191,580,1838,-1539,648
27516,-137,-4021,642,2078,-1510,720
27526,-155,-3738,912,1983,-1478,814
27536,-120,-3356,1057,1854,-1453,833
27546,-18,-3165,1359,1738,-1427,898
27556,49,-3157,1687,1446,-1345,1022
27566,5,-3137,1743,1038,-1245,1152
27576,-121,-3122,1607,791,-1188,1189
27586,-233,-3117,1635,607,-1106,1125
27597,-366,-3186,1787,363,-1039,1064
27607,-549,-3269,1719,62,-1018,1033
27617,-683,-3328,1601,-165,-1012,957
27627,-736,-3415,1475,-107,-1033,863
27637,-725,-3485,1700,69,-1001,791
27647,-724,-3480,1757,148,-960,706
27657,-780,-3550,1709,182,-907,652
27667,-911,-3633,1511,25,-884,633
27677,-1055,-3678,1276,-200,-903,585
27687,-1115,-3837,942,-280,-922,505
27697,-1079,-4237,769,-201,-951,429
27707,-993,-4493,814,-153,-941,351
27717,-867,-4435,953,83,-943,335
27727,-756,-4538,942,509,-926,416
27737,-726,-4597,1349,864,-896,446
27747,-666,-4265,1497,981,-867,411
27757,-585,-3834,1707,1229,-791,403
27767,-643,-3537,1958,1323,-694,478
27777,-856,-3404,1768,1336,-648,541
27787,-1017,-3527,1739,1550,-629,510
27797,-1048,-3725,1840,1727,-669,472
27807,-1067,-3666,1916,1860,-634,457
27817,-1140,-3410,1932,2006,-630,448
27827,-1189,-3075,1963,2039,-608,422
27837,-1262,-2791,1922,1926,-599,388
27848,-1312,-2583,1830,1769,-574,356
27858,-1349,-2532,1866,1672,-589,328
27868,-1385,-2572,1862,1628,-575,271
27878,-1408,-2627,1968,1657,-592,212
27888,-1416,-2632,2062,1665,-626,166
27898,-1381,-2504,2038,1651,-645,120
27908,-1361,-2338,1970,1602,-669,56
27918,-1306,-2179,1824,1529,-696,-34
27928,-1253,-2114,1799,1538,-725,-126
27938,-1184,-2203,1933,1479,-765,-181
27948,-1084,-2340,1990,1321,-815,-226
27958,-977,-2433,1884,1205,-854,-276
27968,-901,-2522,1737,1256,-868,-330
27978,-839,-2631,1788,1351,-881,-397
27988,-782,-2697,1842,1400,-910,-424
27998,-745,-2633,1814,1442,-926,-447
28008,-711,-2466,2073,1429,-937,-482
28018,-633,-2030,1916,1131,-963,-508
28028,-531,-1369,2875,273,-934,-404
28038,-718,-1418,1862,-735,-852,-228
28048,-1048,-2388,1865,-1585,-861,-235
28058,-1166,-3358,1705,-2243,-924,-268
28068,-993,-3974,1399,-2438,-946,-287
28078,-857,-4455,1587,-2368,-1040,-189
28088,-583,-4576,1821,-2240,-1064,-76
28099,-401,-4406,2245,-2054,-1021,24
28109,-430,-4015,2482,-1999,-934,29
28119,-436,-3566,2605,-2070,-905,-21
28129,-272,-3364,3209,-2320,-818,20
28139,-384,-3594,2709,-2553,-789,27
28149,-366,-4176,2635,-2358,-724,-133
28159,15,-4029,1644,-2037,-788,-177
28169,1017,-4065,4768,-2006,-163,160
28179,203,-4496,3921,-2958,-98,303
28189,-337,-4548,4182,-2911,-81,-39
28199,23,-3648,3770,-2459,-186,-123
28209,-44,-3076,3500,-2347,-119,26
28219,119,-2831,3325,-2343,96,-40
28229,148,-3180,3172,-2020,132,-205
28239,282,-3451,2915,-1925,174,-260
28249,435,-3484,2211,-2051,203,-226
28259,259,-3355,1169,-2106,185,-220
28269,311,-3245,1116,-2009,271,-291
28279,471,-3393,1338,-1991,406,-305
28289,573,-3760,1527,-2072,506,-328
28300,618,-4139,1660,-2033,565,-387
28310,634,-4458,1641,-1773,606,-402
28320,651,-4609,1638,-1412,650,-381
28330,590,-4605,1622,-1134,696,-334
28340,583,-4451,1558,-952,753,-292
28350,569,-4400,1576,-861,825,-267
28360,546,-4418,1566,-807,903,-245
28370,570,-4408,1563,-760,960,-201
28380,556,-4285,1548,-687,980,-125
28390,498,-4171,1624,-597,992,-42
28400,430,-3986,1517,-466,983,43
28410,361,-3975,1386,-194,951,90
28420,351,-4108,1282,70,935,143
28430,317,-4076,1197,241,899,199
28440,280,-3991,1079,301,863,230
28450,226,-3889,991,249,841,252
28460,197,-3831,1016,89,829,277
28470,186,-3821,961,-84,826,304
28480,181,-3898,999,-198,837,315
28490,163,-3863,1005,-288,829,353
28501,132,-3872,1061,-310,818,360
28511,122,-3936,1104,-363,803,369
28521,158,-3924,1010,-465,801,393
28531,95,-3891,836,-516,788,404
28541,45,-3814,653,-586,757,423
28551,3,-3732,675,-688,756,423
28561,-48,-3651,721,-895,743,433
28571,-96,-3688,654,-1076,718,446
28581,-122,-3855,557,-1138,704,433
28591,-221,-3982,578,-1092,699,445
28601,-331,-3994,619,-962,667,476
28611,-373,-3943,693,-775,635,481
28621,-405,-3972,708,-596,600,485
28631,-413,-3996,750,-539,567,497
28641,-438,-3956,758,-570,534,505
28651,-452,-3888,619,-700,494,489
28661,-511,-3799,137,-841,448,495
28671,-609,-3871,-61,-889,435,485
28681,-644,-4041,-83,-943,434,471
28691,-634,-4288,113,-967,434,451
28702,-608,-4552,249,-945,408,467
28712,-623,-4752,379,-893,371,501
28722,-657,-4778,453,-824,315,563
28732,-714,-4748,369,-665,245,607
28742,-743,-4833,313,-496,194,642
28752,-755,-4898,251,-410,152,697
28762,-792,-4867,33,-381,103,773
28772,-853,-4724,-104,-405,64,854
28782,-888,-4607,-262,-427,46,887
28792,-970,-4615,-270,-422,8,897
28802,-1031,-4696,-180,-427,-30,914
28812,-1054,-4756,-125,-405,-66,926
28822,-1076,-4740,-44,-368,-108,979
28832,-1144,-4689,-39,-369,-138,1017
28842,-1262,-4631,-125,-352,-186,1072
28852,-1333,-4589,-72,-362,-217,1112
28862,-1337,-4492,-157,-331,-243,1136
28872,-1351,-4409,-160,-266,-275,1191
28882,-1365,-4276,-217,-262,-289,1236
28892,-1440,-4151,-262,-237,-319,1267
28903,-1499,-4031,-256,-211,-346,1296
28913,-1532,-3937,-235,-176,-378,1300
28923,-1531,-3834,-166,-137,-411,1303
28933,-1601,-3723,-145,-92,-445,1313
28943,-1610,-3668,-138,-55,-473,1313
28953,-1589,-3518,-108,-50,-501,1313
28963,-1556,-3333,-195,-45,-514,1291
28973,-1604,-3197,-150,-63,-539,1279
28983,-1623,-3041,-208,-51,-551,1249
28993,-1629,-2952,-108,9,-559,1217
29003,-1571,-2898,-40,38,-553,1181
29013,-1517,-2845,-10,24,-534,1152
29023,-1575,-2675,-36,-66,-518,1124
29033,-1633,-2492,-2,-141,-519,1073
29043,-1609,-2408,51,-244,-518,1039
29053,-1639,-2382,93,-312,-506,987
29063,-1668,-2509,43,-299,-497,913
29073,-1675,-2654,100,-293,-474,862
29083,-1671,-2633,72,-339,-462,809
29093,-1715,-2619,60,-408,-443,760
29104,-1759,-2442,31,-530,-416,721
29114,-1819,-2407,8,-582,-395,660
29124,-1860,-2489,49,-649,-375,613
29134,-1855,-2595,47,-661,-366,556
29144,-1839,-2732,46,-668,-354,506
29154,-1855,-2783,5,-668,-339,460
29164,-1856,-2809,-22,-672,-329,407
29174,-1878,-2800,-43,-670,-308,368
29184,-1903,-2850,-71,-643,-289,339
29194,-1961,-2899,18,-602,-282,313
29204,-2031,-2926,73,-576,-279,299
29214,-2052,-2911,76,-641,-265,329
29224,-2167,-2875,-34,-694,-271,319
29234,-2265,-2947,-163,-731,-241,279
29244,-2345,-3073,-281,-761,-221,246
29254,-2392,-3127,-263,-785,-199,219
29264,-2344,-3056,-266,-858,-187,207
29274,-2315,-3030,-350,-948,-190,184
29284,-2286,-3065,-425,-989,-220,176
29294,-2305,-3173,-402,-973,-250,156
29305,-2315,-3245,-353,-911,-253,136
29315,-2282,-3280,-322,-829,-257,133
29325,-2257,-3284,-342,-730,-261,137
29335,-2168,-3326,-312,-605,-239,146
29345,-2122,-3329,-181,-437,-218,137
29355,-2037,-3360,18,-241,-192,127
29365,-2007,-3420,151,-70,-159,116
29375,-1965,-3499,263,104,-105,83
29385,-1990,-3521,315,274,-56,51
29395,-1999,-3440,480,378,-17,25
29405,-2006,-3259,583,402,35,-9
29415,-1990,-3106,653,371,109,-17
29425,-1935,-2948,628,304,188,-7
29435,-1940,-2863,524,311,255,-10
29445,-1958,-2966,487,381,298,-13
29455,-1984,-3146,408,453,331,-11
29465,-2029,-3426,218,573,332,-9
29475,-2086,-3450,39,605,328,8
29485,-2156,-3256,-156,599,299,13
29495,-2183,-3126,-368,578,256,-13
29506,-2219,-3178,-482,564,189,-7
29516,-2265,-3104,-461,566,138,-31
29526,-2272,-2996,-303,623,113,-63
29536,-2247,-2923,129,683,122,-72
29546,-2119,-2853,449,741,138,-77
29556,-1979,-2708,670,796,184,-80
29566,-1932,-2571,848,755,255,-71
29576,-1906,-2542,579,664,319,-67
29586,-1893,-2578,331,570,394,-73
29596,-1862,-2683,105,487,459,-95
29606,-1808,-2636,8,397,509,-120
29616,-1740,-2520,-124,409,547,-155
29626,-1669,-2559,-223,522,568,-184
29636,-1623,-2729,-203,816,567,-230
29646,-1639,-2918,-212,1236,564,-273
29656,-1642,-2992,-125,1638,544,-295
29666,-1619,-2834,-23,1896,530,-335
29676,-1687,-2721,94,1965,517,-377
29686,-1827,-2697,84,1908,506,-422
29696,-1930,-2721,17,1849,473,-495
29707,-1989,-2747,-159,1780,443,-572
29717,-2132,-2845,-232,1743,445,-667
29727,-2243,-2922,-345,1773,451,-750
29737,-2309,-2946,-472,1888,456,-833
29747,-2311,-2866,-686,2037,404,-902
29757,-2276,-2701,-767,2182,338,-1003
29767,-2306,-2546,-961,2283,248,-1112
29777,-2410,-2452,-955,2314,172,-1213
29787,-2531,-2440,-1017,2306,74,-1317
29797,-2517,-2687,-1011,2259,-50,-1411
29807,-2438,-3151,-499,2115,-166,-1497
29817,-2226,-3488,42,1916,-232,-1583
29827,-2026,-3585,496,1834,-254,-1672
29837,-1943,-3442,753,1799,-279,-1688
29847,-2044,-3080,726,1772,-309,-1627
29857,-2138,-2826,607,1824,-338,-1566
29867,-2208,-2926,435,1896,-355,-1474
29877,-2257,-3312,365,1881,-370,-1432
29887,-2185,-3735,460,1793,-382,-1389
29897,-2058,-3976,598,1690,-384,-1386
29908,-1927,-3918,1025,1525,-375,-1442
29918,-1664,-3644,1658,1084,-337,-1482
29928,-1512,-3351,2153,400,-259,-1432
29938,-1503,-3059,2180,-325,-212,-1417
29948,-1495,-2888,1887,-796,-199,-1450
29958,-1414,-2999,1536,-987,-162,-1462
29968,-1352,-3525,1205,-1004,-103,-1423
29978,-1254,-4003,909,-1026,44,-1409
29988,-964,-4435,960,-747,149,-1403
29998,-593,-4828,1030,-411,221,-1320
30008,-604,-5214,1379,-65,242,-1139
30018,-811,-4866,1814,-119,217,-1241
30028,-910,-4161,1864,9,175,-1412
30038,-944,-3715,2120,-171,160,-1367
30048,-706,-3279,2053,-839,116,-1129
30058,-846,-2982,1452,-1487,120,-978
30068,-883,-3334,738,-1751,97,-1113
30078,-797,-4023,425,-1777,80,-1080
30088,-663,-4471,397,-1602,51,-936
30098,-554,-4566,494,-1395,71,-913
30109,-499,-4428,599,-1277,87,-922
30119,-461,-4232,716,-1250,88,-919
30129,-431,-4019,782,-1330,67,-940
30139,-354,-3917,915,-1519,44,-960
30149,-346,-3808,715,-1874,38,-929
30159,-378,-3667,506,-2203,71,-856
30169,-405,-3581,119,-2458,68,-795
30179,-422,-3610,-231,-2595,65,-765
30189,-439,-3668,-384,-2789,94,-745
30199,-551,-3726,-560,-2899,164,-703
30209,-744,-3937,-1028,-2844,161,-709
30219,-775,-4336,-630,-2826,292,-712
30229,-722,-4340,-498,-2904,399,-768
30239,-634,-4344,-500,-2830,478,-804
30249,-571,-4433,-152,-2579,545,-707
30259,-534,-4494,-110,-2245,613,-702
30269,-487,-4558,61,-2065,697,-614
30279,-627,-4349,-177,-1736,754,-510
30289,-641,-4528,22,-1288,781,-502
30299,-633,-4755,8,-1108,824,-444
30309,-623,-4719,-98,-1050,887,-347
30319,-639,-4583,-249,-997,912,-316
30329,-628,-4312,-410,-980,936,-327
30339,-578,-3984,-544,-977,952,-321
30349,-546,-3761,-653,-1006,959,-317
30360,-539,-3749,-794,-1103,975,-285
30370,-486,-3940,-807,-1165,977,-258
30380,-453,-4211,-1021,-1006,973,-256
30390,-455,-4498,-1195,-591,953,-247
30400,-439,-4488,-1406,-214,923,-238
30410,-394,-4191,-1299,42,886,-270
30420,-280,-3837,-1178,105,845,-304
30430,-204,-3558,-971,-55,841,-305
30440,-204,-3309,-932,-239,816,-323
30450,-157,-3318,-1006,-245,774,-360
30460,-88,-3611,-958,-222,775,-360
30470,-27,-3938,-1139,-208,775,-343
30480,96,-4251,-1212,-127,747,-325
30490,249,-4133,-1231,-254,711,-327
30500,374,-3868,-1205,-228,676,-379
30510,391,-3729,-1056,-178,677,-392
30520,287,-3687,-913,-59,691,-422
30530,242,-3727,-925,231,699,-477
30540,274,-3855,-1032,462,712,-508
30550,311,-3896,-1139,437,715,-534
30560,362,-3766,-1316,339,698,-588
30570,368,-3744,-1393,272,707,-617
30580,383,-3816,-1217,43,718,-610
30590,440,-3818,-1171,-128,695,-637
30600,576,-3855,-1134,-61,659,-663
30611,693,-3839,-948,15,651,-661
30621,792,-3677,-919,170,623,-681
30631,867,-3461,-919,269,602,-689
30641,908,-3306,-801,246,592,-695
30651,990,-3217,-681,67,573,-706
30661,1066,-3243,-625,-200,563,-726
30671,1106,-3429,-690,-449,545,-731
30681,1129,-3675,-889,-583,525,-729
30691,1135,-3753,-1095,-640,506,-746
30701,1183,-3714,-1257,-569,452,-764
30711,1224,-3703,-1540,-353,387,-788
30721,1323,-3917,-1690,-21,306,-799
30731,1504,-4188,-1781,170,206,-784
30741,1696,-4257,-1687,284,115,-785
30751,1852,-4242,-1566,459,33,-805
30761,1905,-4218,-1392,650,34,-779
30771,1878,-4069,-1143,705,61,-728
30781,1851,-3902,-1247,742,31,-690
30791,1975,-3934,-1217,524,-7,-572
30801,2189,-4039,-1071,226,-35,-475
30811,2287,-4170,-1060,204,-42,-408
30821,2201,-4190,-1033,343,7,-340
30831,2030,-4036,-1053,547,13,-285
30841,1922,-3710,-988,765,15,-256
30851,1883,-3408,-979,940,-12,-250
30862,1889,-3176,-934,1006,-15,-244
30872,1858,-3109,-919,1038,-37,-253
30882,1816,-3153,-907,992,-28,-247
30892,1703,-3155,-827,841,-14,-235
30902,1595,-3196,-750,685,-33,-240
30912,1562,-3200,-760,482,-61,-235
30922,1533,-3158,-653,317,-60,-229
30932,1585,-3142,-727,252,-86,-249
30942,1589,-3065,-889,191,-64,-274
30952,1588,-2895,-977,105,-65,-305
30962,1628,-2876,-992,23,-94,-320
30972,1820,-3076,-970,-150,-141,-333
30982,2051,-3451,-1006,-251,-187,-323
30992,2250,-3785,-877,-259,-203,-299
31002,2365,-3943,-665,-226,-213,-271
31012,2404,-3866,-524,-108,-200,-266
31022,2371,-3620,-358,30,-168,-240
31032,2348,-3348,-208,75,-147,-221
31042,2364,-3155,-79,40,-135,-212
31052,2410,-3021,-110,-69,-104,-191
31062,2361,-3014,-179,-164,-74,-183
31072,2285,-3146,-340,-220,-63,-166
31082,2222,-3389,-539,-263,-70,-134
31092,2209,-3587,-621,-323,-108,-96
31102,2221,-3723,-733,-348,-137,-63
31113,2228,-3792,-747,-297,-152,-38
31123,2165,-3813,-640,-211,-145,6
31133,2095,-3724,-582,-109,-163,17
31143,2100,-3512,-507,-49,-157,9
31153,2095,-3261,-521,-17,-152,-5
31163,2088,-3071,-468,-109,-135,-14
31173,2082,-3026,-558,-229,-135,-46
31183,2088,-3109,-598,-275,-142,-55
31193,2096,-3272,-677,-298,-145,-72
31203,2111,-3386,-712,-305,-147,-119
31213,2152,-3445,-864,-269,-172,-162
31223,2214,-3474,-1009,-249,-196,-205
31233,2244,-3542,-1052,-222,-204,-233
31243,2289,-3675,-1075,-194,-225,-261
31253,2341,-3741,-1131,-179,-240,-269
31263,2321,-3736,-1090,-128,-223,-254
31273,2240,-3559,-1407,-44,-295,-239
31283,2539,-3622,-496,72,-151,-178
31293,2645,-3937,-735,69,-273,-90
31303,2338,-3591,-1041,27,-129,-177
31314,2239,-3335,-1080,40,-118,-143
31324,1973,-3345,-1027,-44,-47,-61
31334,1878,-3506,-1126,-67,-103,-45
31344,2007,-3746,-1156,-46,-125,-14
31354,2154,-3804,-1171,23,-106,14
31364,2196,-3670,-1140,165,-70,10
31374,2197,-3465,-1059,236,-26,8
31384,2118,-3278,-1025,171,39,5
31394,2070,-3111,-1022,106,56,-11
31404,2050,-3010,-946,79,47,-39
31414,2091,-3006,-835,47,37,-56
31424,2155,-2988,-635,-15,48,-80
31434,2267,-3020,-602,-13,65,-125
31444,2405,-3081,-599,91,91,-176
31454,2583,-3181,-465,265,105,-216
31464,2745,-3326,-573,429,119,-246
31474,3008,-3465,-399,654,143,-292
31484,3111,-3556,-580,826,2,-342
31494,3174,-3290,-757,938,13,-423
31504,3313,-2903,-593,869,22,-433
31515,3305,-2672,-544,666,105,-379
31525,3213,-2606,-308,331,129,-321
31535,3179,-2538,-206,-89,179,-289
31545,3203,-2734,-153,-273,213,-270
31555,3214,-3048,-134,-364,286,-242
31565,3273,-3072,-157,-310,332,-272
31575,3468,-2925,-182,-155,367,-304
31585,3684,-2718,-191,-28,418,-345
31595,3833,-2541,-275,35,486,-421
31605,3902,-2466,-415,42,565,-509
31615,3954,-2495,-412,-15,629,-579
31625,3943,-2623,-378,-104,616,-646
31635,3987,-2838,-279,-90,541,-727
31645,4043,-3176,-160,8,430,-742
31655,4012,-3480,-395,203,294,-751
31665,3968,-3907,-737,644,113,-806
31675,3921,-4336,-1045,1202,-53,-818
31685,3776,-4499,-1205,1769,-89,-845
31695,3480,-4344,-1325,2259,-152,-945
31705,3240,-4070,-1340,2592,-210,-1112
31716,3171,-3838,-1340,2863,-301,-1246
31726,2960,-3697,-1507,2921,-203,-1365
31736,2864,-3696,-1628,2880,-327,-1409
31746,2813,-3677,-1367,2770,-286,-1456
31756,2756,-3443,-933,2489,-363,-1607
31766,2923,-3238,-733,2316,-517,-1773
31776,3085,-3432,-467,2229,-511,-1714
31786,3030,-3564,-146,1921,-427,-1649
31796,2903,-3337,-126,1634,-370,-1656
31806,2782,-3110,-13,1417,-231,-1596
31816,2598,-3016,70,954,-139,-1425
31826,2439,-3173,15,400,-86,-1182
31836,2168,-3350,-49,-130,-57,-1060
31846,1945,-3601,-208,-531,-113,-1031
31856,1979,-3989,-194,-881,-110,-896
31866,1874,-4113,-489,-1180,-80,-746
31876,1654,-4239,-688,-1219,-36,-680
31886,1270,-4331,-885,-1083,-81,-605
31896,972,-4327,-906,-788,-180,-454
31906,781,-4060,-785,-463,-314,-388
31917,986,-3518,-513,-209,-389,-369
31927,1334,-2836,-309,-75,-361,-336
31937,1711,-2461,104,-52,-275,-279
31947,1764,-2375,614,-137,-104,-241
31957,1591,-2240,834,-223,-14,-237
31967,1548,-1957,1264,-291,67,-170
31977,1821,-1611,1997,-505,133,-151
31987,2265,-1532,2141,-757,136,-138
31997,2594,-1858,1977,-842,186,24
32007,2686,-2363,1650,-720,255,179
32017,2667,-2399,1360,-493,405,198
32027,2601,-1962,1127,-300,564,157
32037,2451,-1460,827,-372,587,165
32047,2367,-1343,517,-536,500,270
32057,2336,-1543,355,-766,380,271
32067,2451,-2009,116,-820,251,170
32077,2631,-2622,22,-733,112,148
32087,2766,-2995,92,-635,26,136
32097,2935,-3020,147,-465,-29,53
32107,3033,-2899,327,-242,-58,-2
32118,3057,-2730,469,-149,-87,14
32128,3035,-2597,440,-120,-168,17
32138,3071,-2565,411,-87,-218,44
32148,3086,-2541,346,-114,-240,75
32158,3070,-2498,237,-100,-232,102
32168,2974,-2425,184,-90,-220,137
32178,2884,-2340,180,-112,-214,148
32188,2819,-2272,86,-103,-247,140
32198,2804,-2241,146,-77,-256,108
32208,2865,-2255,283,-62,-247,93
32218,2893,-2336,206,-78,-264,122
32228,2880,-2491,32,-25,-284,129
32238,2902,-2645,-117,23,-306,117
32248,2880,-2706,-472,133,-318,106
32258,2867,-2670,-557,280,-291,66
32268,2877,-2574,-618,514,-304,57
32278,3090,-2322,400,552,-235,118
32288,3302,-2126,339,570,-296,261
32298,3405,-2111,419,302,-276,439
32308,3382,-2116,266,-87,-243,432
32319,3532,-2151,98,-347,-150,342
32329,3624,-2247,23,-532,-50,335
32339,3589,-2362,-133,-629,57,388
32349,3536,-2503,-308,-565,133,381
32359,3462,-2684,-337,-405,216,343
32369,3370,-2679,-326,-275,308,264
32379,3253,-2397,-177,-210,388,149
32389,3153,-2037,-22,-252,429,38
32399,3088,-1883,95,-381,436,-33
32409,3011,-1911,161,-591,425,-75
32419,2956,-2028,129,-806,384,-117
32429,2913,-2202,63,-948,347,-148
32439,2903,-2416,-54,-1027,269,-175
32449,2923,-2637,-186,-1088,191,-194
32459,2929,-2797,-435,-1138,128,-231
32469,2923,-2901,-670,-1108,69,-259
32479,2952,-3042,-613,-1081,15,-250
32489,2919,-3126,-531,-1107,-40,-243
32499,2929,-3202,-508,-1096,-126,-273
32509,2999,-3290,-482,-1060,-217,-300
32520,3078,-3435,-421,-951,-324,-287
32530,3154,-3551,-397,-858,-413,-269
32540,3287,-3617,-311,-677,-496,-275
32550,3427,-3680,-329,-430,-572,-265
32560,3537,-3684,-304,-190,-604,-261
32570,3643,-3576,-375,0,-604,-283
32580,3758,-3366,-460,210,-586,-308
32590,3838,-3143,-544,406,-534,-337
32600,3899,-2941,-687,593,-480,-382
32610,3894,-2746,-936,812,-343,-399
32620,3817,-2554,-1191,1103,-229,-463
32630,3769,-2412,-1187,1476,-130,-554
32640,3679,-2118,-1107,1750,-19,-654
32650,3675,-1744,-994,1964,52,-728
32660,3668,-1408,-820,2039,85,-716
32670,3636,-1186,-768,2012,112,-714
32680,3540,-1127,-1160,1993,132,-779
32690,3433,-1560,-1777,2281,106,-887
32700,3456,-1807,-926,2345,407,-1105
32710,3333,-1377,-725,2316,560,-1453
32721,3363,-865,-387,2635,690,-1709
32731,3370,-619,124,2641,540,-1699
32741,3446,-449,192,2329,282,-1646
32751,3815,-306,329,2099,123,-1669
32761,4203,-215,414,1973,151,-1817
32771,4392,-373,493,1916,195,-1924
32781,4292,-515,375,1682,133,-1845
32791,4054,-476,215,1398,-20,-1681
32801,3861,-404,51,1027,-160,-1565
32811,3799,-368,-105,500,-238,-1541
32821,3858,-345,-374,26,-309,-1568
32831,4009,-346,-519,-315,-377,-1608
32841,4157,-221,-594,-596,-443,-1626
32851,4320,-74,-578,-834,-462,-1637
32861,4394,-120,-448,-1147,-447,-1596
32871,4455,-410,-337,-1618,-423,-1505
32881,4431,-810,-432,-2027,-408,-1385
32891,4278,-1186,-514,-2325,-350,-1280
32901,4086,-1351,-707,-2637,-305,-1270
32911,3972,-1430,-995,-2716,-293,-1294
32922,3905,-1528,-1135,-2643,-327,-1289
32932,3827,-1474,-1246,-2542,-423,-1279
32942,3854,-1326,-1298,-2480,-503,-1258
32952,3888,-1142,-1265,-2504,-536,-1185
32962,3967,-943,-1166,-2752,-577,-1064
32972,4033,-774,-918,-3152,-595,-938
32982,4090,-696,-872,-3603,-608,-831
32992,4092,-922,-768,-3895,-618,-729
33002,4030,-1323,-787,-4266,-649,-576
33012,3947,-1679,-1043,-4407,-675,-483
33022,3813,-2046,-1151,-4405,-680,-443
33032,3817,-2300,-1153,-4412,-715,-437
33042,3927,-2419,-1143,-4329,-758,-390
33052,4080,-2535,-1193,-4213,-783,-284
33062,4271,-2813,-1159,-3978,-781,-145
33072,4580,-3342,-996,-3603,-726,19
33082,5064,-4444,-586,-2875,-496,297
33092,5022,-5072,-156,-1825,-194,410
33102,4920,-4760,837,-427,164,187
33112,4789,-3482,1577,744,336,52
33123,4689,-1623,1661,1467,300,66
33133,4727,-213,1593,1810,246,117
33143,4738,752,1390,1533,261,107
33153,4718,1156,945,1008,305,69
33163,4549,734,648,514,408,77
33173,4253,93,225,132,381,77
33183,4067,-289,-246,56,241,1
33193,4064,-354,-653,140,137,-52
33203,4185,-250,-993,248,85,-87
33213,4254,-173,-1180,357,79,-85
33223,4265,-176,-1292,403,96,-43
33233,4228,-253,-1314,402,123,5
33243,4096,-356,-1338,401,151,-14
33253,3971,-387,-1351,358,177,-51
33263,3944,-285,-1442,337,162,-87
33273,3974,-226,-1453,387,146,-90
33283,3961,-300,-1372,446,163,-61
33293,3897,-416,-1389,523,153,-51
33303,3861,-499,-1367,635,147,-45
33313,3783,-513,-1306,737,135,-53
33324,3799,-458,-1236,821,119,-65
33334,3810,-455,-1147,910,97,-75
33344,3848,-460,-1065,990,89,-80
33354,3870,-484,-973,1089,92,-86
33364,3939,-476,-804,1225,92,-99
33374,4023,-444,-604,1344,104,-104
33384,4112,-389,-438,1424,122,-93
33394,4226,-281,-173,1453,155,-70
33404,4327,-75,18,1349,176,-38
33414,4400,63,135,1227,216,-16
33424,4435,120,271,1077,268,6
33434,4424,92,249,883,303,36
33444,4351,8,187,740,341,54
33454,4269,-40,149,633,357,55
33464,4208,-127,81,552,361,56
33474,4159,-185,56,512,368,64
33484,4122,-228,83,509,366,68
33494,4075,-283,64,511,351,62
33504,4059,-386,113,540,338,60
33514,4019,-518,179,530,330,68
33525,3969,-553,99,518,316,64
33535,3951,-538,91,568,312,29
33545,3931,-540,89,620,295,5
33555,3916,-598,56,643,271,-2
33565,3907,-620,30,676,252,-17
33575,3908,-677,13,725,242,-18
33585,3905,-733,41,794,240,-18
33595,3882,-794,150,849,251,-13
33605,3872,-845,241,899,264,12
33615,3816,-942,248,952,272,43
33625,3731,-980,243,1000,264,62
33635,3676,-921,259,1059,245,67
33645,3698,-833,287,1093,245,74
33655,3716,-707,208,1071,265,110
33665,3737,-643,100,1057,300,126
33675,3746,-681,62,975,363,150
33685,3703,-763,-37,863,410,185
33695,3642,-839,-55,825,430,209
33705,3595,-923,-16,845,406,235
33715,3613,-995,68,903,361,265
33726,3723,-1000,119,981,324,301
33736,3842,-971,184,1051,325,340
33746,3949,-926,284,1079,333,388
33756,3999,-870,402,1052,344,448
33766,4029,-825,451,968,354,509
33776,4048,-833,487,847,368,576
33786,3998,-818,365,727,370,632
33796,3920,-892,303,609,327,708
33806,3862,-1023,341,474,289,789
33816,3838,-1182,267,368,238,833
33826,3829,-1408,180,359,198,841
33836,3866,-1691,161,442,145,874
33846,3891,-1955,188,550,102,930
33856,3923,-2057,164,670,62,961
33866,3923,-2057,125,829,43,984
33876,3877,-2044,158,963,22,1044
33886,3763,-2005,132,1015,-14,1120
33896,3664,-1964,71,1039,-62,1207
33906,3605,-2043,67,1041,-104,1300
33916,3550,-2142,120,982,-133,1408
33927,3460,-2202,77,922,-171,1497
33937,3340,-2233,106,904,-210,1568
33947,3222,-2281,107,883,-265,1637
33957,3128,-2304,105,819,-332,1717
33967,3062,-2271,87,728,-406,1770
33977,3028,-2248,18,668,-484,1813
33987,3066,-2340,46,604,-555,1831
33997,3152,-2477,32,486,-619,1861
34007,3239,-2558,-62,383,-668,1888
34017,3305,-2620,-170,291,-732,1907
34027,3338,-2602,-273,196,-774,1916
34037,3313,-2555,-374,92,-804,1910
34047,3281,-2508,-421,1,-847,1919
34057,3244,-2529,-494,-138,-896,1941
34067,3225,-2544,-618,-259,-963,1960
34077,3188,-2589,-660,-312,-1036,1945
34087,3236,-2544,-752,-297,-1138,1903
34097,3337,-2486,-769,-240,-1224,1832
34107,3500,-2403,-748,-251,-1296,1769
34117,3615,-2226,-753,-404,-1328,1723
34128,3638,-1987,-790,-681,-1321,1666
34138,3554,-1805,-857,-1014,-1314,1607
34148,3405,-1722,-976,-1388,-1317,1527
34158,3246,-1736,-1102,-1680,-1354,1406
34168,3177,-1864,-1204,-1865,-1440,1241
34178,3342,-2037,-1240,-1957,-1544,1065
34188,3617,-2008,-1110,-2033,-1578,912
34198,3814,-1799,-1187,-2174,-1562,790
34208,3878,-1542,-980,-2310,-1496,698
34218,3776,-1372,-1004,-2620,-1429,575
34228,3679,-1253,-1030,-2916,-1389,452
34238,3632,-1246,-866,-3404,-1326,385
34248,3645,-1161,-1025,-3971,-1278,275
34258,3862,-1299,-1375,-4138,-1275,142
34268,4178,-1768,-1498,-3951,-1272,60
34278,4357,-2165,-1761,-3582,-1144,9
34288,4436,-2392,-1828,-3044,-987,-72
34298,4368,-2395,-1925,-2598,-903,-61
34308,4253,-2286,-1984,-2288,-808,-41
34318,4162,-2295,-2093,-2016,-759,0
34329,4010,-2626,-2189,-1737,-719,87
34339,3818,-2898,-2207,-1515,-694,126
34349,3778,-2861,-2291,-1275,-682,124
34359,3625,-2541,-2361,-1116,-610,192
34369,3540,-2207,-2286,-1028,-566,211
34379,3484,-1892,-2323,-1076,-521,241
34389,3039,-453,-2842,-1388,-444,161
34399,3924,-1,-1407,-1319,-426,-13
34409,3747,251,-2034,-2772,-59,152
34419,3546,-940,-2058,-2682,249,-83
34429,2727,-2616,-2575,-2407,409,345
34439,2111,-3257,-2580,-1933,281,427
34449,2375,-3149,-2395,-1357,118,266
34459,2769,-2857,-2297,-1031,123,227
34469,3240,-3250,-2590,-561,251,274
34479,2689,-3046,-2937,-3,438,266
34489,2481,-1419,-2508,467,604,-64
34499,2610,-1006,-2288,820,697,26
34509,2191,-1335,-2132,428,567,213
34519,2319,-1765,-2215,206,379,75
34530,2667,-2043,-2392,347,373,-20
34540,2740,-1889,-2655,382,412,63
34550,2783,-1784,-2713,272,479,83
34560,2732,-1640,-2702,85,562,62
34570,2781,-1730,-2557,-5,562,42
34580,2784,-1852,-2682,-29,532,103
34590,2771,-1884,-2914,29,492,131
34600,2804,-1959,-3130,152,453,139
34610,2834,-2183,-3052,265,467,213
34620,2775,-2359,-2914,308,466,240
34630,2722,-2304,-2757,340,457,198
