t_ms,ax,ay,az,gx,gy,gz
0,763,528,3972,35,22,119
10,741,563,3966,35,39,87
20,780,484,3951,43,28,76
30,827,463,3945,84,19,118
40,830,617,3982,127,-1,154
50,827,690,3991,102,13,214
60,1515,79,3781,122,280,-114
70,651,528,3951,243,152,-112
80,650,908,4000,185,136,-7
90,674,928,4011,-35,126,156
100,751,620,4011,-183,144,197
110,757,388,3956,-168,131,170
120,785,400,3955,-51,118,94
130,735,564,3977,3,104,38
140,725,645,4005,-4,101,2
150,744,569,3974,0,88,-7
160,748,509,3983,77,59,-31
170,729,670,4018,128,43,-70
180,735,687,3991,107,26,-75
190,729,701,3989,95,11,-63
200,724,654,3966,80,17,-44
210,711,660,3979,88,14,-25
220,719,630,3965,101,-1,-29
230,716,686,4012,96,-1,-53
240,732,694,4021,85,4,-52
250,698,732,3994,72,3,-34
260,711,728,4002,88,-2,-34
270,677,791,3996,75,-4,-13
280,688,801,3998,54,-7,-10
290,672,789,3963,32,-13,-14
300,693,760,3947,9,-12,5
310,657,767,3978,-7,-18,1
320,682,682,3957,0,-17,-3
330,695,715,3986,31,-15,-19
340,706,750,4005,17,-1,-9
350,708,805,3998,-13,8,12
360,701,709,3993,-32,19,28
370,658,711,3987,-2,27,40
380,645,743,3986,7,13,21
390,614,660,3970,48,-14,0
400,638,639,3978,94,-33,-32
410,646,733,3973,84,-25,-48
420,661,792,3988,52,-22,-52
430,677,825,3981,15,-24,-33
440,674,808,3971,-6,-18,-19
450,715,746,3981,-34,-15,-4
460,710,717,3964,-36,-1,5
470,712,704,3990,-31,4,12
480,712,726,3975,-30,6,16
490,703,731,3981,-19,3,20
500,695,737,3974,-12,-7,21
510,704,758,3987,-32,-4,35
520,705,744,3987,-57,-6,52
530,687,718,3960,-64,-7,57
540,700,701,3972,-56,-13,33
550,722,668,3976,-48,-12,29
560,728,649,4002,-40,-1,26
570,730,680,3976,-20,0,14
580,715,697,3981,-21,-2,11
590,711,689,3974,-15,-2,14
600,722,705,3973,-28,-3,9
610,730,726,3989,-53,4,19
620,716,687,3977,-67,5,35
630,709,655,3961,-66,7,34
640,715,682,3983,-65,1,32
650,702,675,3969,-42,-3,15
660,729,651,3970,-13,-14,-1
670,733,660,3967,2,-7,-11
680,731,709,3974,-5,-5,-11
690,753,687,3984,-9,-3,-5
700,722,699,3973,-8,-2,-2
710,725,694,3990,-12,-5,-1
720,746,706,3995,-28,2,6
730,738,691,3994,-38,9,16
740,725,676,3981,-49,13,26
750,743,673,3988,-70,22,43
760,688,695,3969,-79,28,39
770,717,668,3978,-60,16,23
780,693,659,3978,-52,2,9
790,709,634,3970,-36,2,7
800,716,654,3983,-33,-1,1
810,720,659,4012,-43,3,1
820,743,686,3993,-56,7,10
830,721,679,3977,-58,5,17
840,733,687,3984,-40,2,13
850,721,668,3982,-56,11,18
860,728,631,3978,-44,12,25
870,709,688,3975,-46,8,19
880,684,675,3982,-46,1,14
890,715,671,4006,-39,-6,6
900,715,684,3997,-61,-5,6
910,700,673,3983,-65,-4,5
920,725,636,3975,-47,-7,-2
930,723,696,3967,-43,-1,2
940,740,690,3965,-43,1,9
950,743,666,3981,-31,6,16
960,725,691,3973,-40,7,24
970,715,676,3970,-49,8,27
980,711,647,3979,-62,19,39
990,685,664,3956,-63,13,36
1000,673,609,3983,-28,1,21
1010,687,608,4014,-24,-4,10
1020,693,627,4002,-19,-5,0
1030,690,622,3998,-7,-10,-1
1040,701,671,4006,-14,-12,1
1050,725,633,3994,-29,-13,7
1060,711,620,3998,-30,-11,9
1070,713,616,3982,-34,-3,8
1080,723,654,3983,-43,3,13
1090,704,647,3962,-50,6,18
1100,726,611,3997,-31,0,12
1110,730,613,3985,-26,6,10
1120,686,600,3983,-24,5,-4
1130,690,580,3967,6,-4,-13
1140,691,621,3979,44,-13,-28
1150,713,635,4003,62,-23,-35
1160,702,676,3993,51,-20,-28
1171,694,652,3973,40,-20,-29
1181,682,636,3997,57,-27,-33
1191,706,648,3990,63,-30,-45
1201,732,706,3996,50,-27,-34
1211,722,720,4007,8,-14,-16
1221,707,681,3988,-8,-6,6
1231,681,656,3970,17,-12,10
1241,700,601,3981,57,-25,-10
1251,680,661,3976,88,-23,-32
1261,709,670,3995,75,-24,-44
1271,696,696,4000,71,-28,-44
1281,710,712,3972,40,-18,-31
1291,722,647,3983,53,-25,-22
1301,702,672,3968,50,-19,-18
1311,707,664,3983,48,-20,-22
1321,727,703,3984,38,-17,-20
1331,711,720,3986,14,-14,-21
1341,717,679,3984,-5,-10,-11
1351,708,637,3963,20,-8,-15
1361,699,639,3970,61,-16,-29
1372,697,670,3978,83,-23,-48
1382,707,711,3987,90,-29,-44
1392,727,694,3992,82,-30,-42
1402,726,709,3984,69,-23,-37
1412,722,730,3975,76,-26,-32
1422,728,701,3958,78,-23,-24
1432,710,701,3959,81,-25,-27
1442,746,679,3961,99,-25,-35
1452,736,702,3952,94,-16,-39
1462,759,737,3979,93,-6,-28
1472,729,750,3980,86,1,-18
1482,717,695,3975,109,-18,-35
1492,722,699,3966,124,-23,-47
1502,735,743,3983,125,-20,-47
1512,746,798,3957,85,-5,-36
1522,739,737,3953,83,-5,-25
1532,728,792,3978,76,0,-18
1542,753,775,3945,57,-8,-16
1552,738,772,3961,45,-5,-27
1562,739,758,3948,45,-1,-25
1573,745,703,3971,103,-9,-29
1583,777,675,3956,155,-6,-29
1593,727,722,3971,219,-13,-59
1603,758,778,3950,247,-12,-72
1613,747,832,3952,255,-15,-73
1623,758,824,3947,236,-5,-61
1633,776,696,3929,279,1,-51
1643,792,759,3946,371,2,-62
1653,864,769,3938,446,-11,-52
1663,885,735,3937,542,-6,-35
1673,2193,-19,3766,777,324,-614
1683,645,1235,3901,799,19,-221
1693,781,1163,3928,621,172,-84
1703,736,1026,3934,591,215,54
1713,868,838,3952,545,237,45
1723,836,766,3958,531,268,-38
1733,778,976,3940,537,284,-55
1743,806,1187,3959,458,311,52
1753,760,1152,4021,382,337,173
1763,788,999,4003,336,347,211
1774,737,1063,3958,239,354,265
1784,660,1081,3893,125,393,341
1794,557,989,3934,128,385,436
1804,591,1040,3931,138,395,486
1814,552,850,3994,116,407,492
1824,458,912,4104,136,393,422
1834,369,1114,4145,100,335,361
1844,73,949,4257,109,306,173
1854,1937,-1771,4069,116,613,-841
1864,-832,1153,4025,553,743,-372
1874,485,1287,4263,477,405,-698
1884,33,1700,4286,301,396,-409
1894,41,1871,4202,134,179,-102
1904,120,1794,4063,163,104,-55
1914,148,1762,3969,247,30,1
1924,168,1677,3883,307,-62,85
1934,345,1671,3824,367,-129,137
1944,417,1716,3766,331,-79,267
1954,431,1714,3705,285,1,310
1964,444,1649,3679,243,35,281
1980,377,1544,3699,241,102,275
1990,382,1449,3657,148,165,301
2000,339,1467,3571,161,248,280
2010,271,1522,3617,202,263,265
2020,218,1468,3649,175,290,260
2030,227,1522,3648,211,285,220
2040,218,1594,3677,258,298,209
2050,225,1591,3697,242,297,206
2060,208,1565,3668,231,306,195
2070,130,1520,3665,240,295,205
2080,133,1456,3722,259,269,194
2090,143,1454,3722,222,250,197
2100,154,1465,3739,190,223,209
2110,172,1549,3772,162,194,204
2120,183,1504,3759,168,162,197
2130,266,1470,3784,164,158,182
2140,289,1400,3782,186,161,159
2150,322,1323,3826,246,171,126
2160,281,1374,3848,259,198,137
2170,299,1430,3882,242,145,170
2180,379,1437,3834,197,175,197
2190,419,1384,3850,182,245,196
2200,356,1404,3794,157,280,222
2210,349,1426,3839,206,312,214
2220,338,1458,3869,225,300,237
2230,290,1509,3829,207,289,262
2240,281,1603,3828,169,285,303
2250,238,1571,3757,104,277,342
2260,226,1520,3770,130,296,351
2270,184,1454,3824,147,261,368
2280,232,1431,3835,148,254,379
2290,223,1401,3849,128,253,373
2300,260,1435,3874,131,238,371
2310,226,1478,3839,118,232,374
2320,186,1578,3804,104,226,386
2330,163,1591,3793,97,199,406
2340,188,1554,3774,113,180,425
2350,201,1531,3766,141,162,427
2360,225,1575,3801,159,151,432
2370,238,1631,3795,116,142,445
2380,209,1635,3735,64,143,448
2390,196,1692,3708,96,130,451
2400,220,1667,3727,58,151,434
2410,137,1557,3738,-12,168,439
2420,183,1505,3703,11,154,429
2430,219,1546,3768,53,157,405
2440,215,1569,3801,32,159,400
2450,246,1537,3783,49,168,402
2460,306,1595,3801,89,186,392
2470,327,1616,3788,62,220,393
2480,307,1648,3683,64,250,385
2490,350,1582,3677,114,316,343
2500,332,1536,3697,140,377,325
2510,308,1596,3702,130,430,341
2520,316,1639,3682,99,444,379
2530,331,1634,3689,93,483,394
2540,343,1585,3752,50,523,429
2550,278,1652,3764,-10,571,459
2560,197,1714,3802,-68,575,501
2570,149,1736,3857,-139,585,545
2580,69,1705,3877,-211,570,592
2590,58,1568,3840,-242,560,587
2600,3,1451,3885,-184,535,543
2610,-28,1454,3943,-161,512,471
2620,-74,1489,3919,-148,487,390
2630,-131,1540,3796,-103,445,320
2640,-190,1672,3795,-31,392,277
2650,-207,1737,3802,-46,361,259
2660,-245,1796,3806,-103,312,269
2670,-231,1812,3814,-167,284,268
2680,-200,1731,3742,-224,258,273
2690,-231,1680,3752,-243,229,270
2700,-170,1634,3729,-241,208,247
2710,-200,1577,3741,-230,212,218
2720,-151,1571,3773,-242,192,219
2730,-157,1603,3762,-265,198,215
2740,-159,1587,3796,-273,188,208
2750,-169,1552,3815,-266,179,210
2760,-185,1503,3831,-230,161,198
2770,-168,1439,3853,-213,149,190
2780,-174,1473,3835,-190,145,180
2790,-190,1475,3836,-138,141,156
2800,-185,1493,3860,-115,129,155
2810,-209,1490,3853,-85,114,139
2820,-199,1502,3877,-95,106,131
2830,-209,1542,3882,-117,93,138
2840,-210,1529,3868,-141,80,142
2850,-195,1477,3860,-118,68,127
2860,-181,1460,3886,-82,48,122
2870,-177,1491,3906,-79,35,117
2880,-159,1512,3942,-114,39,119
2890,-195,1500,3852,-119,27,119
2900,-192,1491,3883,-61,2,123
2910,-144,1450,3891,-34,2,121
2920,-143,1467,3869,-1,6,106
2930,-129,1481,3861,33,5,92
2940,-121,1485,3882,36,-2,97
2950,-124,1485,3864,12,-3,107
2960,-117,1485,3837,-10,-10,112
2970,-122,1489,3812,1,-21,108
2980,-131,1493,3814,35,-37,108
2990,-99,1500,3828,38,-54,111
3000,-113,1482,3851,17,-47,105
3010,-104,1478,3882,-38,-47,119
3020,-99,1497,3856,-90,-48,120
3030,-114,1444,3841,-87,-33,109
3040,-96,1445,3836,-83,-35,103
3050,-103,1385,3839,-74,-19,77
3060,-82,1395,3863,-76,-16,79
3070,-63,1410,3859,-93,-2,71
3080,-91,1437,3847,-91,-2,61
3090,-59,1386,3863,-56,-4,40
3100,-88,1376,3859,-49,4,40
3110,-92,1425,3847,-28,-2,25
3120,-92,1429,3864,-38,-2,20
3130,-106,1447,3833,-60,-3,19
3140,-127,1457,3858,-69,-14,12
3150,-131,1469,3877,-86,-24,4
3160,-136,1441,3898,-96,-45,-13
3170,-184,1513,3941,-107,-71,-2
3180,-161,1454,3939,-105,-111,-36
3190,-288,1433,3943,-125,-161,-15
3200,-231,1517,3926,-170,-284,-74
3210,-247,1748,3868,-293,-517,-165
3220,20,2224,3913,-620,-955,-598
3231,-450,1661,3761,-716,-976,-765
3241,-658,1216,3861,-484,-1058,-405
3251,858,2313,4369,-1738,-636,9
3261,-419,2292,3702,-2641,-410,250
3271,390,1774,3581,-1955,-915,-136
3281,722,544,3847,-1797,-558,-589
3291,832,-601,3750,-1776,-699,-173
3301,938,-718,3438,-1065,-348,122
3311,763,-409,3733,-199,-86,57
3321,655,205,3973,221,150,-76
3331,409,834,4107,365,247,-36
3341,58,1139,4157,287,211,58
3351,-132,1251,4328,36,82,33
3361,-72,1684,4011,-240,-64,-158
3371,-36,1487,4074,-259,-50,-181
3381,129,926,3980,-425,-189,-29
3391,154,633,3862,-312,-163,-21
3401,334,529,3996,-67,-155,-143
3411,469,817,3962,95,-48,-173
3421,404,1088,3990,204,56,-132
3431,191,1188,4107,133,105,-122
3441,4,1167,4102,18,86,-130
3451,-55,1026,4091,-69,7,-147
3461,23,900,4045,-125,-68,-171
3471,163,839,4003,-119,-106,-182
3482,285,795,3976,-97,-84,-168
3492,308,774,3962,-69,-36,-149
3502,254,741,3984,-31,4,-144
3512,193,707,3975,-4,19,-138
3522,144,712,3991,22,8,-142
3532,124,731,3984,26,-5,-136
3542,142,782,4017,29,-10,-137
3552,157,806,4074,3,-9,-133
3562,148,784,4047,-31,-4,-122
3572,130,769,4037,-48,-4,-110
3582,89,707,4018,-25,-6,-100
3592,86,705,3997,0,-12,-97
3602,95,746,3949,6,-15,-107
3612,121,807,3962,11,-13,-118
3622,115,839,3999,-9,-2,-112
3632,83,855,4006,-35,9,-97
3642,69,839,3984,-43,8,-92
3652,70,838,3973,-33,3,-82
3662,96,852,3994,-15,6,-78
3672,95,894,4012,-15,10,-66
3682,101,912,3986,-29,19,-59
3692,91,882,3986,-38,27,-53
3702,75,867,3988,-53,22,-48
3712,72,864,3976,-52,13,-45
3722,75,856,4003,-43,8,-49
3733,97,885,4009,-38,-1,-55
3743,105,917,4045,-39,-3,-58
3753,116,937,4073,-52,-6,-56
3763,102,919,4083,-48,-5,-60
3773,96,879,4070,-47,-17,-59
3783,105,896,4056,-42,-35,-61
3793,151,910,4034,-29,-42,-73
3803,201,940,3987,-34,-59,-82
3813,237,939,3963,-38,-62,-87
3823,251,920,3932,-53,-60,-89
3833,254,917,3927,-53,-65,-93
3843,249,926,3934,-55,-63,-84
3853,243,927,3971,-51,-57,-79
3863,245,922,4011,-41,-51,-73
3873,213,921,4055,-37,-51,-61
3883,202,927,4061,-31,-55,-46
3893,163,906,4047,-16,-63,-32
3903,162,879,4033,-13,-68,-38
3913,192,878,3982,-5,-74,-36
3923,207,837,3999,5,-83,-43
3933,234,834,3975,8,-63,-32
3943,249,839,3968,9,-37,-16
3953,205,852,3953,6,-18,-12
3963,204,852,3963,-26,-8,-11
3973,160,876,3960,-56,0,3
3984,118,831,3966,-97,1,13
3994,87,740,3977,-95,-4,14
4004,96,676,4003,-89,-6,10
4014,82,655,4049,-63,-6,11
4024,85,658,4091,-33,2,7
4034,105,685,4094,-22,-1,0
4044,114,728,4083,-13,2,-3
4054,137,749,4053,-15,-2,-6
4064,156,782,4022,-35,4,-4
4074,177,814,3974,-53,7,5
4084,185,794,3941,-70,8,5
4094,200,797,3932,-83,11,0
4104,227,784,3951,-74,13,0
4114,217,785,3979,-60,28,-8
4124,191,762,4020,-47,36,-15
4134,184,773,4038,-39,39,-12
4144,162,791,4059,-31,29,-22
4155,161,816,4065,-27,24,-22
4165,169,826,4018,-20,16,-34
4175,176,824,4014,-21,22,-40
4185,175,868,4023,-34,24,-34
4195,158,889,4011,-46,32,-34
4205,138,903,4000,-73,30,-39
4215,145,889,3989,-93,12,-42
4225,170,846,4024,-89,15,-44
4235,191,834,4053,-98,13,-37
4245,200,812,4001,-84,11,-30
4255,198,780,4001,-59,16,-37
4265,170,772,3992,-34,14,-33
4275,155,774,4007,-10,12,-36
4285,147,793,4037,-2,6,-29
4295,162,841,4039,-5,4,-26
4305,157,846,4058,-23,-2,-13
4315,161,816,4061,-50,-7,-5
4326,161,793,4057,-68,-4,4
4336,161,750,4024,-57,-13,9
4346,168,738,4038,-42,-14,17
4356,178,744,4012,-28,-3,30
4366,168,763,4021,-18,-4,38
4376,139,768,3968,-12,-7,37
4386,122,739,3983,-7,-17,38
4396,157,741,3981,-8,-18,29
4406,174,787,4009,-10,-20,27
4416,185,804,4002,-33,-6,28
4426,169,805,4014,-50,-2,26
4436,147,754,4021,-67,4,18
4446,121,735,4024,-60,7,16
4456,134,709,4032,-52,0,0
4466,142,714,4011,-38,-1,-11
4476,164,704,4018,-33,3,-14
4487,147,721,4017,-32,10,-14
4497,154,726,4019,-27,7,-18
4507,160,734,4014,-27,6,-29
4517,163,740,3980,-32,7,-26
4527,159,756,3981,-45,18,-28
4537,132,784,3989,-61,23,-26
4547,127,773,4005,-78,29,-24
4557,99,722,4031,-84,15,-23
4567,115,711,4041,-88,15,-15
4577,120,693,4064,-66,13,-17
4587,109,689,4059,-45,12,-16
4597,114,689,4035,-32,12,-12
4607,110,718,4039,-20,15,-3
4617,112,738,4025,-31,10,-5
4627,114,771,4008,-39,7,9
4637,127,769,3988,-55,5,9
4647,121,733,3992,-65,7,18
4658,120,732,3992,-68,7,22
4668,123,731,4039,-51,9,23
4678,120,718,4063,-48,3,23
4688,112,731,4069,-36,-3,24
4698,106,728,4066,-35,2,26
4708,101,742,4041,-35,-3,25
4718,121,779,4037,-31,-9,16
4728,136,769,4010,-32,-16,16
4738,154,767,4019,-35,-15,10
4748,154,749,4041,-37,-9,1
4758,159,765,4002,-45,-12,7
4768,166,776,4018,-38,-9,0
4778,180,738,4021,-37,-11,-3
4788,172,707,4016,-36,-10,-5
4798,168,712,4029,-35,-5,-3
4808,166,737,4032,-39,-3,-5
4818,161,741,4031,-52,1,0
4829,138,742,4009,-54,-4,0
4839,130,683,4016,-64,-6,4
4849,142,671,4029,-52,-8,-4
4859,155,669,4028,-43,-7,0
4869,150,688,4018,-39,-4,-1
4879,131,686,4045,-30,-4,2
4889,119,666,4052,-37,-4,-4
4899,117,655,4033,-29,-7,0
4909,138,645,4020,-24,-11,6
4919,146,648,4004,-7,-8,5
4929,149,673,3996,1,-6,6
4939,124,690,4006,-5,-2,5
4949,112,675,4018,3,-1,8
4959,111,634,4023,17,-8,5
4969,100,606,4048,45,-13,0
4979,111,598,4041,93,-21,-7
4990,136,597,4070,129,-23,-9
5000,131,647,4061,166,-21,-8
5010,134,697,4045,185,-19,-2
5020,137,740,4024,181,-25,5
5030,128,781,4035,170,-33,8
5040,147,805,4017,144,-35,15
5050,162,805,4005,123,-42,15
5060,184,777,3995,109,-33,24
5070,172,723,3977,128,-40,27
5080,175,688,4003,137,-37,24
5090,164,717,3987,145,-37,37
5100,142,801,4024,136,-39,52
5110,134,811,4034,149,-50,53
5120,146,842,4059,120,-56,62
5130,176,865,4041,85,-63,58
5140,208,922,4044,56,-62,67
5150,222,872,4017,34,-58,57
5160,227,862,4003,14,-52,57
5170,215,888,3997,-4,-32,54
5180,192,917,3994,-22,-25,51
5191,178,903,3952,-35,-17,43
5201,162,837,3945,-35,-20,32
5211,164,811,3965,-21,-14,29
5221,182,872,3990,-21,-7,23
5231,157,885,3994,-20,-8,12
5241,155,834,4030,-24,-3,4
5251,128,822,4009,-31,-7,-6
5261,136,838,4044,-27,-3,-14
5271,156,843,4047,-31,-7,-22
5281,193,861,4046,-49,-6,-26
5291,193,851,4024,-80,-3,-18
5301,188,853,4018,-96,7,-15
5311,207,801,3984,-105,1,-16
5321,219,745,3963,-97,13,-23
5331,210,747,3973,-86,21,-18
5341,192,784,3978,-70,26,-16
5351,167,768,4016,-67,30,-9
5361,137,738,4012,-68,11,-11
5371,142,739,4043,-72,3,-13
5381,157,751,4091,-68,-4,-10
5392,122,743,4113,-63,-11,-5
5402,123,711,4131,-63,-23,0
5412,140,682,4126,-45,-33,3
5422,161,660,4107,-38,-42,6
5432,184,698,4068,-20,-46,10
5442,178,734,4027,-11,-44,12
5452,192,754,3993,-3,-50,20
5462,204,758,3978,-9,-52,18
5472,222,773,3958,-9,-58,23
5482,206,762,3972,-6,-55,9
5492,237,751,3995,-7,-48,-1
5502,241,725,4008,-3,-41,-8
5512,217,728,3993,5,-36,-20
5522,198,738,4043,3,-30,-20
5532,184,741,4016,8,-24,-25
5542,198,751,4018,-9,-28,-34
5552,218,772,4000,-28,-29,-45
5562,227,788,3986,-51,-18,-45
5572,224,782,4000,-83,-6,-46
5582,200,790,3999,-107,4,-45
5593,181,748,3982,-122,0,-51
5603,152,715,3970,-118,-5,-49
5613,177,703,3975,-106,-3,-48
5623,181,700,3997,-75,-7,-47
5633,166,726,4017,-68,2,-45
5643,160,776,4008,-66,2,-39
5653,138,819,4018,-82,6,-27
5663,113,807,4003,-80,-4,-19
5673,100,786,4021,-72,-14,-14
5683,95,814,4023,-72,-19,1
5693,124,824,4058,-65,-20,-3
5703,151,847,4081,-76,-25,9
5713,141,819,4072,-90,-37,1
5723,160,766,4102,-84,-39,-4
5733,180,728,4075,-76,-43,-6
5743,177,720,4058,-39,-41,-8
5753,177,712,4073,0,-44,-19
5763,193,741,4075,16,-43,-20
5773,213,792,4055,15,-43,-15
5783,215,799,4029,2,-43,-23
5794,227,747,4009,-6,-53,-28
5804,233,688,3995,-13,-49,-32
5814,267,686,4006,2,-47,-33
5824,289,708,4020,25,-41,-33
5834,276,701,4035,23,-31,-35
5844,256,722,4021,11,-30,-30
5854,245,699,4034,8,-35,-30
5864,239,654,4042,-3,-43,-33
5874,238,616,4033,3,-54,-29
5884,259,567,4009,24,-57,-23
5894,231,557,4021,64,-59,-11
5904,215,544,4031,97,-63,-2
5914,177,557,4076,128,-82,7
5924,195,567,4091,169,-109,22
5934,223,600,4095,190,-124,40
5944,265,634,4066,216,-141,47
5954,323,671,4039,214,-144,62
5964,336,695,4020,224,-137,70
5974,366,713,3989,218,-128,67
5984,378,762,3981,183,-122,73
6000,377,795,3970,156,-117,78
6010,354,789,3932,144,-109,82
6020,345,710,3960,146,-108,74
6030,359,702,3961,152,-105,72
6040,375,750,3986,177,-100,69
6050,371,765,3994,192,-96,67
6060,351,792,3998,188,-81,72
6070,345,851,3982,176,-69,78
6080,334,842,3939,163,-64,80
6090,323,867,3956,146,-60,82
6100,339,891,3958,124,-53,83
6110,347,944,3951,93,-42,88
6120,344,979,3956,49,-31,94
6130,330,950,3969,26,-21,80
6140,324,913,3980,5,-17,86
6150,319,912,3976,1,-16,83
6160,319,890,4006,12,-13,66
6170,315,883,4033,31,-13,55
6180,332,890,4009,39,-5,49
6190,321,911,3994,47,-2,41
6200,308,938,3992,43,0,38
6210,318,958,4016,33,2,31
6220,326,960,3938,14,3,23
6230,328,1004,3951,-15,5,23
6240,342,991,3987,-42,14,21
6250,321,980,3960,-69,12,22
6260,337,879,4002,-52,7,13
6270,334,790,4005,-44,7,8
6280,349,830,4007,-8,16,-2
6290,354,888,4021,17,19,-4
6300,322,903,4027,15,23,-13
6310,319,914,4013,-6,21,-16
6320,309,899,3984,-29,14,-17
6330,332,892,3980,-39,10,-20
6340,329,866,3988,-45,3,-27
6350,356,849,3985,-52,11,-19
6360,335,814,3993,-35,14,-17
6370,330,781,4004,-24,15,-15
6380,334,782,4000,-14,10,-21
6390,334,814,4011,-4,8,-20
6400,346,821,3993,-16,11,-14
6410,330,825,3976,-7,6,-10
6420,317,810,3984,-14,9,-12
6430,343,837,3985,-18,6,-6
6440,321,819,4000,-16,8,1
6450,333,838,3963,-12,3,7
6460,320,807,3991,-7,2,8
6470,328,814,4003,-9,2,8
6480,328,831,4003,4,4,9
6490,317,841,3992,16,11,16
6500,312,868,4022,6,7,14
6510,290,870,3990,2,6,22
6520,284,886,3991,-8,11,24
6530,286,918,3987,-19,0,25
6540,290,889,4001,-15,-2,22
6550,291,873,4017,-22,-4,24
6560,294,909,3967,-11,-5,21
6570,318,910,4005,-21,1,21
6580,307,895,3998,-13,0,17
6590,291,893,4038,-27,5,21
6600,299,904,4003,-14,5,16
6610,297,919,3998,-18,-3,14
6620,295,903,3973,-13,-4,7
6630,327,886,3965,-16,-4,6
6640,312,874,3974,-6,-1,6
6650,332,904,3995,-6,0,3
6660,323,914,3990,-3,-5,2
6670,312,920,4010,-17,4,-2
6680,303,898,3999,-27,1,0
6690,313,870,4012,-33,2,-6
6700,326,878,3996,-47,-3,2
6710,326,876,3995,-36,-3,-4
6720,323,847,4002,-35,4,-7
6730,330,841,3988,-31,2,-6
6740,338,850,3964,-27,3,-3
6750,343,827,3989,-18,4,-6
6760,323,830,3976,-9,1,-1
6770,327,845,3980,-14,4,-5
6780,337,892,4003,-21,9,5
6790,321,902,4011,-38,2,0
6800,311,859,4000,-45,6,-3
6810,298,822,4010,-47,1,-6
6820,309,831,4030,-45,2,-6
6830,319,825,4014,-29,5,-3
6840,324,832,4027,-30,10,-3
6850,308,827,4008,-25,7,0
6860,317,841,3975,-29,8,7
6870,299,855,3993,-23,4,4
6880,317,863,3985,-30,9,13
6890,297,852,3985,-35,6,23
6900,301,847,3975,-35,5,22
6910,301,854,3997,-32,2,28
6920,305,823,3988,-27,6,23
6930,307,854,4020,-26,0,23
6940,311,855,4009,-26,6,24
6950,303,863,4022,-33,5,21
6960,299,871,4008,-41,7,20
6970,303,861,4012,-42,1,15
6980,305,848,4005,-44,1,4
6990,321,824,3999,-37,0,5
7000,340,816,4005,-34,4,-2
7010,335,844,3996,-21,6,-4
7020,336,826,3991,-12,11,-4
7030,313,842,3990,-14,12,-1
7040,309,831,3994,-18,11,2
7050,315,860,3989,-30,7,-2
7060,303,848,4003,-36,1,-3
7070,317,834,4008,-46,2,1
7080,324,822,4019,-49,5,0
7090,315,795,4008,-39,4,1
7100,315,808,3991,-33,7,4
7110,326,805,4001,-20,8,4
7120,319,813,3992,-15,7,4
7130,321,813,3981,-17,6,2
7140,326,823,4000,-16,3,-5
7150,314,831,3984,-16,0,3
7160,292,842,4001,-18,3,3
7170,303,810,3996,-17,2,2
7180,310,839,4006,-23,3,2
7190,310,847,3996,-24,7,6
7201,287,839,4021,-32,6,5
7211,284,830,4007,-37,11,3
7221,284,811,4010,-33,4,1
7231,296,811,4007,-37,3,-1
7241,299,812,4018,-25,4,2
7251,288,797,4020,-22,8,-8
7261,283,819,3999,-14,6,-6
7271,288,808,3997,-18,5,-8
7281,284,841,4009,-26,4,-6
7291,300,845,4005,-33,1,1
7301,315,822,4027,-44,0,5
7311,301,803,4013,-42,1,2
7321,310,805,3995,-46,6,6
7331,306,787,3984,-37,8,9
7341,284,790,3993,-26,10,4
7351,307,795,3987,-15,5,8
7361,300,793,4012,-6,1,4
7371,308,825,3999,-3,3,9
7381,295,850,4003,-15,1,7
7391,281,861,4019,-27,1,3
7402,287,813,4000,-31,0,4
7412,289,791,4009,-29,-2,4
7422,308,813,4010,-20,2,2
7432,283,827,4006,-5,2,-4
7442,320,808,4008,-6,3,-4
7452,303,821,4002,-9,3,4
7462,287,819,3993,-7,2,-7
7472,311,827,3993,-9,-5,-8
7482,300,826,3994,-11,-10,-6
7492,316,824,4007,-11,-5,-7
7502,303,804,4018,-9,-5,1
7512,305,823,4014,-10,-4,-1
7522,306,815,4019,-14,2,-1
7532,283,807,4025,-18,0,-4
7542,267,783,4016,-17,0,-8
7552,281,788,4000,-22,-3,1
7562,276,818,4009,-19,-2,2
7572,292,793,4003,-11,-7,-2
7582,295,782,4005,-14,-5,4
7592,301,791,4020,-18,-2,0
7603,304,806,4001,-25,5,-1
7613,280,811,4005,-30,9,8
7623,283,781,4001,-31,0,1
7633,294,757,4013,-25,-2,-3
7643,286,770,4018,-19,0,-3
7653,293,809,4031,-23,0,-7
7663,290,796,4040,-27,4,-8
7673,268,783,4020,-26,-1,-6
7683,270,756,4024,-20,-6,-10
7693,291,772,4017,-9,-9,-2
7703,300,798,4028,0,-5,-3
7713,309,816,4005,5,-2,-2
7723,302,795,3996,-2,-1,5
7733,288,805,3987,-5,-6,16
7743,295,814,3986,0,-7,18
7753,300,824,3999,-7,-9,14
7763,296,806,4024,4,-11,20
7773,302,795,4017,0,-10,17
7783,297,825,4021,8,-12,13
7793,304,809,4012,17,-10,4
7804,309,848,4004,9,-6,11
7814,301,862,4007,1,-7,8
7824,294,857,3999,-12,-4,4
7834,292,823,4000,-29,0,-6
7844,292,817,4007,-34,-7,-8
7854,309,788,4013,-36,-1,-3
7864,322,804,4002,-43,0,-3
7874,298,791,4005,-37,-1,-5
7884,288,750,3997,-26,0,-2
7894,298,746,3982,-8,0,-3
7904,313,765,3995,13,2,-7
7914,298,791,4002,11,3,2
7924,293,828,4008,-3,4,5
7934,284,826,4005,-17,-2,4
7944,286,786,4023,-19,-2,-2
7954,289,760,4002,-18,-2,2
7964,296,794,4009,-9,-3,3
7974,290,808,4020,-4,2,5
7984,273,814,4027,-7,7,5
7994,257,806,4008,-10,-2,5
8005,274,798,4006,-2,2,3
8015,294,831,3986,-5,-2,-2
8025,295,853,4001,-12,-1,0
8035,287,869,4002,-28,-1,-3
8045,287,811,4007,-27,0,1
8055,288,778,4016,-24,-4,-3
8065,293,774,3998,-9,-4,-7
8075,300,783,4014,7,0,-13
8085,304,809,4010,7,-3,-12
8095,288,822,4020,-4,1,-6
8105,278,832,4022,-20,-4,-10
8115,280,830,3999,-39,-8,-5
8125,289,808,4004,-47,-10,-1
8135,297,781,3986,-39,-5,5
8145,297,747,4000,-16,-4,4
8155,297,743,4013,-5,-2,3
8165,293,756,4003,9,-4,10
8175,283,798,4035,14,-4,2
8185,275,821,4004,14,-9,4
8195,291,821,3998,-1,-8,4
8205,295,803,4002,-8,-10,5
8215,305,799,4003,-3,-13,5
8225,291,814,4005,-5,-2,7
8235,285,817,4000,-4,-1,10
8245,277,820,4007,-10,0,5
8256,284,788,4011,-12,-7,-1
8266,285,771,4014,-4,-7,-5
8276,309,773,4012,2,-9,-6
8286,299,782,4005,24,-9,-5
8296,297,824,4001,22,-4,-1
8306,278,826,3996,17,-12,1
8316,272,814,4009,2,-8,-5
8326,296,808,4012,-7,-13,2
8336,311,802,3993,-9,-18,0
8346,321,792,4017,2,-14,6
8356,333,805,4016,6,-13,5
8366,329,819,4023,2,-11,4
8376,309,825,3999,-9,-4,8
8386,290,836,4001,-23,-1,10
8396,290,807,3982,-20,-12,3
8406,295,769,3995,-21,-14,-1
8416,295,768,4022,-3,-13,-6
8426,304,801,4018,1,-4,4
8436,303,824,4042,-2,-4,-4
8446,292,830,4015,-15,-3,2
8456,289,805,4009,-31,-4,6
8466,288,806,3996,-36,-10,0
8476,291,797,3977,-25,-11,9
8486,287,796,3993,-8,-11,6
8496,291,797,4006,-5,-4,7
8507,288,806,4022,-1,-1,4
8517,275,804,4039,2,-11,-4
8527,267,787,4034,5,-19,-5
8537,306,794,4038,12,-12,-10
8547,308,808,4021,-1,-11,-8
8557,317,860,4032,-16,-8,-6
8567,312,848,4011,-25,-7,0
8577,313,824,4000,-35,-1,4
8587,291,818,3972,-42,-4,16
8597,289,778,3997,-23,-7,11
8607,295,752,4002,-4,-8,13
8617,299,763,4013,12,-4,11
8627,292,803,4021,22,-7,11
8637,292,803,4032,24,-7,3
8647,323,811,4000,13,-9,4
8657,309,843,4003,-2,-6,10
8667,313,846,4013,-11,-7,10
8677,304,827,4007,-24,-7,-1
8687,318,810,4004,-30,-3,5
8697,334,827,3996,-38,-5,2
8707,323,797,3995,-35,-4,-2
8717,323,787,3988,-28,-1,0
8727,316,746,4003,-20,-5,-7
8737,327,784,4002,-13,-2,-1
8747,306,797,3993,-1,-5,-1
8758,319,816,4020,-2,1,-4
8768,318,828,4022,-4,3,6
8778,322,822,4029,-16,-3,-5
8788,304,839,3997,-30,1,2
8798,303,818,4024,-37,-1,-5
8808,298,802,3999,-35,2,1
8818,289,792,4026,-21,-7,0
8828,297,776,3992,-13,0,-4
8838,298,808,4005,-9,0,0
8848,300,805,4011,-6,2,-1
8858,292,795,4015,-4,0,-6
8868,291,815,3986,-16,-8,1
8878,290,816,3997,-17,-3,-3
8888,287,800,4002,-15,-4,-8
8898,290,795,4005,-35,2,-1
8908,287,815,4001,-30,3,0
8918,273,797,4000,-26,1,-6
8928,286,770,4016,-22,-5,-6
8938,301,796,4008,-18,2,-1
8948,294,796,4024,-6,-6,-2
8958,286,790,4016,-7,-2,-3
8968,287,792,4014,0,-6,4
8978,287,788,4015,1,-5,-3
8988,309,822,4032,-3,-8,1
8998,295,839,4020,-19,-8,2
9009,308,831,4018,-46,-7,8
9019,306,785,4009,-48,-12,10
9029,302,735,3995,-40,-12,14
9039,315,724,4013,-10,-16,8
9049,321,751,4028,16,-12,10
9059,317,800,4034,18,-16,11
9069,311,816,4007,16,-20,11
9079,297,802,4007,9,-17,10
9089,303,810,3999,1,-23,9
9099,314,817,3994,-8,-19,12
9109,326,822,3998,-17,-24,3
9119,326,781,4000,-6,-16,12
9129,323,768,4010,-8,-14,4
9139,329,775,4001,-3,-8,6
9149,306,798,3986,-4,-6,4
9159,300,784,4013,0,-14,3
9169,289,764,4018,-6,-12,-3
9179,312,754,4013,2,-14,1
9189,301,755,4015,10,-14,-1
9199,312,793,4014,11,-13,2
9210,301,813,4021,8,-1,-1
9220,304,824,4003,-7,-7,0
9230,315,804,3991,-17,-13,-1
9240,303,803,4004,-13,-11,2
9250,322,808,3987,-11,-7,4
9260,316,796,4007,-8,-5,5
9270,311,811,3999,-5,-7,2
9280,300,805,4020,-1,-3,10
9290,301,777,4014,15,-11,4
9300,322,767,4017,27,-17,-4
9310,328,788,3991,39,-17,-2
9320,332,823,4007,40,-4,12
9330,312,874,4006,20,1,15
9340,295,889,4012,-1,-2,16
9350,279,832,4017,-24,-8,16
9360,270,791,4020,-27,-12,12
9370,316,769,4030,-15,-13,4
9380,308,782,4038,11,-12,3
9390,318,774,4036,21,-9,-3
9400,313,790,4023,31,-14,-1
9411,300,767,3999,39,-16,-5
9421,314,788,3996,50,-28,1
9431,323,778,3989,76,-22,-1
9441,335,770,3990,91,-24,8
9451,338,772,3998,112,-18,11
9461,320,772,3973,124,-14,17
9471,301,761,3987,160,-24,13
9481,275,715,4002,200,-30,6
9491,281,696,4002,258,-47,6
9501,304,699,3998,311,-62,-6
9511,345,733,3976,358,-52,-3
9521,313,818,4031,381,-50,8
9531,299,908,4004,391,-52,3
9541,314,925,3971,418,-66,6
9551,367,935,4029,378,-73,10
9561,387,929,3978,389,-83,24
9571,393,924,3952,387,-67,31
9581,415,950,3978,375,-62,33
9591,414,1098,3962,342,-51,42
9601,402,1155,3957,304,-49,56
9612,384,1193,3927,225,-44,66
9622,380,1175,3903,161,-41,70
9632,389,1162,3927,112,-48,80
9642,416,1105,3924,100,-50,67
9652,426,1117,3918,87,-36,64
9662,398,1062,3941,114,-31,56
9672,401,1121,3960,92,-15,47
9682,404,1205,3969,62,-12,47
9692,386,1282,3959,-2,-4,46
9702,368,1259,3968,-56,-11,40
9712,357,1166,3914,-75,-10,32
9722,373,1105,3929,-76,-13,12
9732,380,1071,3905,-43,-11,1
9742,392,1085,3941,-26,2,-12
9752,379,1104,3930,-15,12,-16
9762,344,1110,3961,-21,26,-21
9772,295,1098,3973,-38,23,-23
9782,307,1100,3962,-54,7,-25
9792,333,1088,3959,-69,-3,-36
9802,356,1051,3951,-78,2,-28
9813,374,1018,3930,-58,0,-26
9823,356,907,3930,-13,1,-31
9833,391,922,3945,19,8,-30
9843,380,985,3954,37,13,-24
9853,364,1058,3988,23,16,-17
9863,358,1060,3982,3,12,-12
9873,359,1042,3976,-32,6,-5
9883,357,998,3949,-26,-1,-2
9893,372,992,3946,-4,-4,1
9903,383,1015,3941,9,7,4
9913,371,1076,3964,10,17,11
9923,355,1112,3959,2,17,9
9933,339,1090,3958,-11,4,6
9943,338,1081,3959,-26,-1,0
9953,370,1098,3949,-30,0,-5
9963,384,1117,3948,-40,8,-8
9973,373,1119,3952,-52,15,-4
9983,354,1069,3956,-55,11,-6
9993,345,1060,3954,-50,15,-10
10003,354,1081,3951,-45,6,-8
10014,346,1040,3956,-32,2,-13
10024,356,1038,3973,-36,4,-17
10034,362,1069,3961,-42,7,-13
10044,345,1078,3966,-54,9,-8
10054,341,1058,3958,-52,5,-10
10064,343,1043,3968,-60,1,-11
10074,352,1037,3968,-67,6,-5
10084,350,1036,3964,-70,5,1
10094,347,1028,3950,-68,1,3
10104,342,991,3951,-58,4,2
10114,344,991,3959,-62,7,4
10124,357,1041,3974,-56,-3,4
10134,346,1024,3951,-52,-2,6
10144,347,995,3956,-45,-3,-1
10154,354,991,3955,-38,0,4
10164,357,1007,3965,-38,3,4
10174,361,1037,3965,-36,3,3
10184,341,1019,3968,-43,1,8
10194,361,1011,3963,-53,-3,3
10204,370,1023,3958,-50,-1,2
10215,372,1025,3975,-50,0,0
10225,374,1043,3973,-58,-5,-4
10235,343,1015,3980,-62,0,-9
10245,348,997,3967,-63,2,-3
10255,351,987,3957,-47,1,-14
10265,355,992,3963,-39,-2,-11
10275,363,1006,3968,-39,-1,-2
10285,356,1005,3982,-44,7,-1
10295,341,982,3975,-47,5,2
10305,324,965,3956,-42,1,11
10315,329,973,3957,-48,6,13
10325,329,1004,3946,-44,3,20
10335,323,987,3947,-52,4,18
10345,324,973,3971,-57,4,13
10355,321,950,3972,-44,3,10
10365,326,958,3971,-36,2,15
10375,335,976,3986,-24,2,3
10385,335,977,3981,-19,4,2
10395,341,982,3980,-32,-1,8
10405,348,1002,3963,-40,1,5
10416,352,992,3954,-41,-1,1
10426,374,988,3957,-51,0,6
10436,377,994,3980,-60,4,11
10446,380,1012,3965,-73,9,8
10456,383,973,3944,-65,5,12
10466,362,910,3939,-52,2,2
10476,371,921,3967,-33,3,2
10486,392,958,3974,-14,4,2
10496,371,1018,3972,-14,6,0
10506,352,1026,3980,-34,7,5
10516,353,1023,3979,-50,2,12
10526,350,999,3967,-54,-2,0
10536,382,998,3966,-55,0,-4
10546,388,997,3971,-52,2,-4
10556,355,995,3964,-51,10,-4
10566,349,961,3968,-37,10,-7
10576,335,956,3984,-35,5,-14
10586,332,963,3977,-33,6,-9
10596,327,963,3976,-29,0,-13
10606,345,970,3979,-26,4,-13
10617,329,978,3986,-43,2,-10
10627,327,962,3992,-52,8,-9
10637,318,953,3984,-52,2,-11
10647,323,941,3986,-45,4,-9
10657,321,931,3997,-51,8,-6
10667,321,950,3973,-53,10,-4
10677,319,930,3985,-64,10,-1
10687,307,907,3971,-55,7,2
10697,313,856,3976,-45,10,-5
10707,321,862,3987,-30,6,1
10717,316,896,3986,-4,7,1
10727,343,920,3992,-10,4,-2
10737,316,927,3999,-6,10,5
10747,326,944,4006,-17,9,9
10757,329,939,3975,-29,4,1
10767,345,929,3971,-31,2,8
10777,355,920,3968,-17,5,8
10787,351,888,3962,-5,6,9
10797,335,931,3967,-1,6,5
10807,349,953,3970,-3,10,7
10818,331,943,3979,-7,2,11
10828,334,947,3962,-14,-1,10
10838,348,941,3986,-13,-3,7
10848,353,954,3995,-8,-3,10
10858,357,957,3996,-7,-2,9
10868,356,969,3988,-12,3,10
10878,319,949,3986,-8,0,7
10888,327,949,3978,-5,-8,10
10898,343,952,3955,6,-12,2
10908,344,956,3970,18,-6,-4
10918,342,967,3979,19,-5,-5
10928,346,975,3957,7,-7,-2
10938,339,959,3960,8,-5,-3
10948,328,967,3966,6,-1,-2
10958,314,969,3980,9,-4,-8
10968,323,968,4006,-5,2,-11
10978,312,969,4007,-18,4,-9
10988,295,968,4028,-23,-2,-9
10998,309,923,4015,-34,-6,-11
11008,324,895,3999,-28,-8,-6
11019,324,898,3992,-22,-3,-7
11029,337,907,3961,-22,-5,-4
11039,338,936,3949,-22,-1,-2
11049,337,896,3955,-8,5,-4
11059,328,904,3953,-10,6,0
11069,307,927,3976,-10,5,2
11079,339,934,3993,-14,2,-8
11089,330,956,4009,-27,2,-10
11099,333,947,4009,-23,-3,-4
11109,328,928,3990,-24,0,-8
11119,333,920,3981,-10,-6,-11
11129,347,936,3977,-6,1,-3
11139,332,977,3971,-7,8,0
11149,321,983,3968,-17,9,6
11159,312,970,3959,-28,5,7
11169,316,952,3947,-23,1,5
11179,324,942,3945,-22,1,6
11189,335,942,3968,-16,3,6
11199,322,973,3997,-19,10,2
11209,318,965,3972,-25,5,5
11220,304,949,3974,-27,3,-6
11230,316,939,3988,-30,-1,-13
11240,328,954,4005,-28,-3,-20
11250,339,954,3989,-24,0,-15
11260,327,945,4013,-18,2,-4
11270,311,933,3990,-23,0,-12
11280,303,955,3987,-27,3,-8
11290,295,939,3981,-32,-2,-6
11300,315,931,3967,-37,-5,-11
11310,323,916,3978,-34,-7,-6
11320,346,921,3982,-32,2,-3
11330,354,917,3975,-35,3,-2
11340,335,898,3996,-30,6,-6
11350,323,886,3977,-28,9,-5
11360,318,914,3991,-27,10,-3
11370,317,947,3984,-40,14,0
11380,311,950,3987,-47,10,-2
11390,303,924,3988,-47,4,2
11400,312,898,3974,-51,1,-7
11410,321,869,3985,-41,3,-6
11421,343,886,3995,-31,-1,-12
11431,333,917,3990,-22,7,-11
11441,316,906,3997,-17,6,-14
11451,316,890,3978,-16,4,-12
11461,319,889,3980,-10,1,-8
11471,318,927,3972,-13,2,-12
11481,325,952,3987,-23,7,-11
11491,322,931,3978,-32,10,-7
11501,284,904,3973,-36,7,0
11511,310,920,4007,-36,5,-1
11521,322,928,4006,-30,4,1
11531,312,942,4001,-38,8,2
11541,300,993,4010,-64,11,4
11551,292,944,3995,-65,5,1
11561,278,903,3972,-68,0,3
11571,306,883,3978,-57,-8,-3
11581,309,883,3973,-44,-3,-4
11591,329,896,4020,-34,-3,-9
11601,322,919,3989,-33,1,-7
11611,315,893,3990,-37,1,-1
11622,299,892,3988,-38,0,-5
11632,298,876,3988,-47,-7,-2
11642,316,901,3992,-55,-5,-2
11652,325,889,3994,-67,-1,2
11662,312,897,3975,-77,2,6
11672,302,864,3987,-83,9,7
11682,290,793,4001,-68,0,-2
11692,305,781,3983,-47,-3,-1
11702,313,825,4006,-32,-1,1
11712,331,847,4015,-24,6,2
11722,310,877,4006,-32,4,2
11732,298,851,4009,-33,8,9
11742,308,837,3998,-51,-1,4
11752,319,861,3960,-45,0,-3
11762,336,871,3956,-34,8,0
11772,349,883,3951,-43,28,-1
11782,343,882,3956,-55,46,4
11792,309,906,3955,-83,57,6
11802,300,911,3947,-109,66,10
11812,290,937,3945,-146,74,15
11823,286,895,3935,-172,88,15
11833,244,834,3945,-177,95,16
11843,241,792,3966,-169,105,11
11853,180,765,3975,-133,107,12
11863,173,780,4037,-119,105,2
11873,162,817,4063,-125,95,-1
11883,131,815,4097,-136,83,8
11893,131,794,4094,-153,63,8
11903,151,789,4073,-156,46,13
11913,193,769,4048,-138,24,11
11923,226,781,4054,-117,21,17
11933,240,804,4016,-112,13,13
11943,244,817,4036,-103,19,11
11953,238,808,4044,-128,6,13
11963,219,783,4035,-118,-13,11
11973,205,742,4027,-108,-32,-2
11983,263,734,4085,-86,-49,-10
11993,284,759,4058,-64,-55,-14
12003,307,789,4088,-47,-62,-23
12013,329,832,4058,-44,-65,-32
12024,346,818,4029,-39,-71,-49
12034,390,797,4009,-38,-73,-52
12044,400,802,3983,-33,-67,-57
12054,386,805,3994,-35,-58,-72
12064,384,815,3982,-54,-46,-83
12074,377,834,3990,-77,-37,-98
12084,371,850,4004,-125,-30,-109
12094,371,845,4002,-164,-18,-115
12104,354,800,4007,-173,-24,-118
12114,349,691,4046,-166,-12,-129
12124,373,670,4021,-152,-19,-142
12134,376,685,4029,-105,-7,-161
12144,404,700,4033,-94,-20,-166
12154,375,672,4013,-61,-26,-155
12164,357,599,3954,-11,-61,-158
12174,378,561,3902,47,-82,-168
12184,426,784,3567,282,-93,-206
12194,325,952,3993,456,-99,-315
12204,187,1061,4218,120,-112,-392
12214,25,1218,4314,-378,-161,-455
12225,182,1211,4139,-684,-300,-460
12235,597,852,4039,-753,-338,-354
12245,806,557,3931,-680,-123,-144
12255,645,377,3909,-572,56,-220
12265,249,327,3902,-447,138,-268
12275,-763,479,3993,-365,54,-365
12285,-418,581,4084,-357,-159,-444
12295,-34,501,3978,-342,-280,-389
12305,252,297,3932,-172,-305,-343
12315,319,57,3966,0,-263,-398
12325,387,53,3996,118,-215,-443
12335,1181,396,4102,92,100,-44
12345,543,566,4138,-273,284,-63
12355,357,1379,4112,-251,75,-3
12365,-196,746,4188,-318,51,261
12375,-459,-32,3860,-211,-177,326
12385,-426,330,4040,21,-95,-5
12395,509,857,4184,-80,-217,-155
12405,144,947,4080,-429,-263,-41
12415,802,584,4119,-361,-310,329
12426,537,315,3874,-410,-243,25
12436,186,281,3948,-458,-171,-76
12446,545,309,3975,-348,-127,-40
12456,204,412,4010,-340,-120,-251
12466,251,351,3944,-348,-205,-270
12476,405,318,4001,-251,-215,-225
12486,611,256,3999,-203,-165,-210
12496,657,239,4003,-131,-82,-141
12506,618,285,4019,-45,-30,-93
12516,571,373,4046,42,10,-69
12526,598,400,4062,73,53,-34
12536,546,413,4089,60,79,-9
12546,512,432,4070,10,111,17
12556,479,490,4053,-43,123,30
12566,403,506,4012,-61,115,2
12576,443,488,3935,-24,107,-58
12586,500,446,3924,59,147,-155
12596,479,315,3991,51,243,-295
12606,406,287,4036,-46,260,-426
12616,263,267,4061,-65,185,-398
12627,317,368,4089,-53,134,-342
12637,498,480,4115,-81,137,-290
12647,428,575,4138,-139,154,-281
12657,411,704,4119,-170,115,-291
12667,438,615,4063,-214,96,-250
12677,480,491,3999,-208,152,-240
12687,439,513,4000,-204,232,-279
12697,345,497,4044,-283,313,-285
12707,193,421,4040,-357,260,-210
12717,197,288,4067,-380,149,-110
12727,343,187,4054,-336,98,-77
12737,392,221,4069,-229,119,-148
12747,335,238,4138,-173,125,-150
12757,321,296,4131,-162,122,-110
12767,348,335,4122,-155,142,-97
12777,273,393,4116,-169,139,-70
12787,204,351,4059,-181,127,-58
12797,217,327,4054,-140,120,-102
12807,126,218,4035,-94,142,-189
12817,137,284,4064,-15,114,-303
12828,184,207,4097,25,85,-355
12838,225,185,4114,33,55,-327
12848,203,277,4119,80,45,-283
12858,219,374,4165,106,41,-224
12868,211,404,4123,47,43,-140
12878,213,413,4108,-16,51,-71
12888,196,338,4051,-77,67,-19
12898,211,279,4014,-121,75,11
12908,220,229,3998,-126,100,14
12918,135,404,3992,-106,111,-24
12928,138,379,4025,-126,91,-89
12938,122,210,4022,-144,102,-129
12948,156,203,4042,-93,95,-173
12958,158,183,4084,-70,103,-190
12968,121,295,4110,-46,105,-188
12978,144,274,4109,-39,98,-174
12988,159,310,4098,-20,83,-140
12998,137,315,4090,-15,76,-105
13008,112,280,4025,-41,57,-62
13018,-20,521,4102,-115,53,99
13034,160,369,4075,-209,-93,196
13044,361,172,4000,-214,-2,64
13054,247,74,4024,-117,70,-31
13064,98,196,4084,-86,103,-46
13074,145,150,4056,-89,116,-69
13084,128,88,4092,-78,133,-65
13094,125,119,4093,-55,138,-48
13104,78,142,4127,-35,141,-41
13114,68,141,4118,2,134,-35
13124,53,150,4118,49,133,-36
13134,41,148,4117,59,124,-13
13144,5,173,4066,89,94,27
13154,22,246,4056,136,60,67
13164,-29,308,4050,164,17,118
13174,-30,401,4099,143,-39,173
13184,-16,448,4137,71,-91,207
13194,16,512,4151,-34,-144,236
13204,36,367,4121,-121,-175,253
13214,87,241,4086,-154,-178,276
13224,105,257,4082,-162,-171,303
13234,112,299,4057,-139,-157,284
13244,52,225,4086,-97,-157,256
13254,1,113,4092,-58,-171,288
13264,141,165,4068,-39,-182,319
13274,193,233,4071,-7,-148,273
13284,196,279,4072,40,-139,232
13294,255,276,4076,85,-142,169
13304,236,225,4082,74,-134,124
13314,257,302,4067,31,-108,93
13324,291,347,4071,-23,-97,15
13334,272,272,4068,-63,-86,-22
13344,230,193,4049,-78,-77,-17
13354,185,171,4047,-65,-71,6
13364,215,128,4067,-48,-73,33
13374,254,147,4079,-41,-74,50
13384,279,166,4071,-18,-82,50
13394,273,193,4052,3,-82,29
13404,315,206,4048,34,-83,-13
13414,301,271,4064,50,-66,-62
13424,300,245,4095,14,-50,-125
13434,219,265,4031,-22,-54,-137
13444,263,272,4082,-55,-54,-137
13454,202,216,4075,-91,-41,-113
13464,248,213,4055,-99,-38,-94
13474,224,205,4053,-64,-38,-97
13484,210,195,4073,-25,-46,-116
13494,219,158,4055,-13,-54,-123
13504,235,197,4080,-7,-44,-133
13514,218,216,4078,-14,-42,-142
13524,210,213,4083,-8,-29,-139
13534,205,206,4083,1,-26,-125
13544,201,233,4092,-7,-23,-111
13554,190,239,4087,-24,-27,-101
13564,186,255,4066,-32,-25,-96
13574,186,229,4074,-22,-33,-82
13584,180,195,4087,-21,-38,-80
13594,237,231,4088,-27,-43,-70
13604,185,266,4061,-41,-39,-56
13614,212,277,4074,-42,-41,-49
13624,247,225,4099,-32,-36,-67
13634,215,247,4088,-42,-46,-69
13644,225,238,4082,-56,-49,-73
13654,254,189,4084,-46,-53,-73
13664,247,199,4070,-24,-55,-74
13674,257,248,4069,3,-51,-57
13684,254,250,4044,33,-47,-52
13694,289,168,4081,67,-51,-66
13704,286,180,4058,90,-46,-61
13714,231,209,4049,103,-33,-63
13724,248,201,4021,119,-17,-64
13734,257,159,4038,145,-8,-71
13744,263,171,4038,178,14,-74
13754,237,257,4039,210,12,-56
13764,213,303,4048,265,-11,-89
13774,250,193,4060,314,-48,-115
13784,207,177,4094,334,-49,-117
13794,273,294,4106,295,-83,-122
13804,273,401,4115,258,-69,-114
13814,262,435,4081,173,-71,-91
13824,243,402,4022,148,-76,-88
13834,293,301,4041,169,-83,-92
13844,270,321,4059,209,-83,-106
13854,316,332,4105,238,-93,-115
13864,289,363,4130,219,-105,-92
13874,292,425,4116,203,-85,-75
13884,333,420,4120,220,-87,-74
13894,323,417,4054,228,-80,-67
13904,296,378,4038,260,-95,-95
13914,308,370,3992,261,-122,-120
13924,327,393,3986,269,-125,-138
13934,382,405,4006,257,-112,-144
13944,401,411,4007,211,-82,-121
13954,414,422,4012,173,-63,-104
13964,414,388,4027,142,-47,-87
13974,407,390,4036,89,-19,-65
13984,413,433,4006,56,-6,-52
13994,414,460,4014,13,11,-43
14004,378,492,3976,-15,26,-37
14014,363,492,3954,-26,37,-57
14024,367,452,3944,16,35,-100
14034,334,417,3978,65,40,-125
14044,339,510,4001,102,46,-146
14054,374,578,4037,106,49,-156
14064,359,591,4045,89,47,-140
14074,397,628,4069,73,58,-109
14084,373,633,4101,33,64,-76
14094,370,649,4099,-27,73,-35
14104,337,628,4099,-68,82,-13
14114,295,613,4071,-89,93,13
14124,273,558,4074,-89,92,33
14134,285,548,4062,-89,82,36
14144,253,535,4073,-37,73,18
14154,254,502,4061,-11,61,13
14164,235,505,4063,18,56,-15
14174,255,508,4079,19,40,0
14184,254,534,4077,12,35,19
14194,239,551,4104,2,19,33
14204,222,520,4081,-21,4,43
14214,213,464,4052,-23,-16,20
14224,239,402,4042,-13,-16,-5
14235,257,435,4067,-10,-16,11
14245,296,474,4061,-20,2,6
14255,267,446,4064,-29,0,13
14265,298,465,4034,-27,6,27
14275,307,535,4041,-44,16,29
14285,276,496,4057,-60,11,35
14295,284,450,4030,-66,21,33
14305,246,428,4044,-53,21,37
14315,240,389,4047,-33,14,32
14325,217,404,4040,-7,14,39
14335,236,397,4028,17,5,1
14345,257,388,4038,28,-10,-27
14355,248,434,4056,22,1,-23
14365,272,453,4072,0,1,-8
14375,269,469,4051,-23,6,15
14385,253,465,4047,-59,7,38
14395,265,439,4034,-80,21,54
14405,295,409,4032,-83,30,46
14415,302,457,4062,-73,35,32
14425,289,504,4089,-89,36,37
14436,284,486,4041,-78,34,48
14446,255,426,4028,-33,45,44
14456,256,377,4043,-1,37,-9
14466,243,475,4050,20,9,-35
14476,170,541,4086,-9,-8,8
14486,290,539,4071,-71,-24,54
14496,305,550,4068,-74,-26,61
14506,325,520,4071,-82,-9,68
14516,305,552,4079,-100,-3,82
14526,284,530,4072,-131,-3,83
14536,303,488,4087,-160,10,98
14546,247,456,4066,-144,15,96
14556,214,427,3990,-93,8,85
14566,160,317,3995,-31,8,51
14576,253,351,4026,1,43,12
14586,195,465,4059,22,39,-18
14596,195,498,4084,25,23,-12
14606,200,492,4065,30,15,-14
14616,180,463,4081,41,-1,-9
14626,175,452,4069,22,-7,13
14637,152,421,4051,9,-16,29
14647,179,493,4045,-27,-46,91
14657,227,458,4033,-43,-62,100
14667,220,416,4028,-22,-90,127
14677,305,461,4038,4,-86,140
14687,333,516,4058,-18,-60,101
14697,359,540,4042,-68,-48,82
14707,380,518,4050,-87,-30,69
14717,200,376,4061,-96,-20,105
14727,197,279,3990,-94,6,157
14737,-51,116,4021,-20,-22,216
14747,-12,319,3946,84,-90,399
14757,-257,116,3982,260,-230,613
14767,133,-97,3914,416,-270,784
14777,738,219,3879,577,-181,577
14787,679,668,3992,597,-67,342
14797,509,681,4010,456,14,230
14807,268,744,4068,309,6,272
14817,408,525,3992,241,-3,220
14827,379,523,4030,267,-24,103
14838,499,659,3956,189,-23,32
14848,450,718,3997,79,17,-18
14858,483,751,4020,-57,44,-38
14868,535,832,4092,-137,9,-42
14878,613,850,4170,-203,32,-94
14888,538,853,4233,-292,38,-114
14898,559,888,4318,-368,29,-99
14908,556,883,4279,-432,-19,-111
14918,390,815,4314,-485,-65,-43
14928,164,726,4257,-544,-118,163
14938,258,477,4205,-563,-90,349
14948,341,292,4105,-534,-19,323
14958,690,220,3973,-442,132,75
14968,259,54,3938,-310,106,20
14978,210,72,3895,-144,133,-66
14988,250,79,3939,17,150,-141
14998,276,168,3991,89,171,-158
15008,241,220,4015,84,195,-173
15018,232,287,4032,83,198,-163
15028,233,379,4050,51,192,-153
15039,223,441,4052,5,172,-133
15049,252,482,4064,-63,149,-84
15059,246,517,4056,-132,136,-41
15069,214,464,4057,-199,112,15
15079,215,407,4059,-253,87,98
15089,296,414,4065,-280,87,116
15099,294,448,4083,-326,91,107
15109,265,414,4071,-360,77,105
15119,330,354,4040,-303,82,70
15129,300,295,4025,-201,83,22
15139,312,269,4065,-130,92,-13
15149,302,342,4076,-119,106,-39
15159,261,405,4075,-139,119,-57
15169,231,409,4062,-176,127,-59
15179,212,384,4076,-217,144,-41
15189,137,356,4078,-264,149,-7
15199,139,343,4095,-312,130,23
15209,134,355,4143,-384,148,33
15219,126,265,4102,-394,136,32
15229,88,188,4131,-394,109,40
15240,52,154,4109,-358,82,54
15250,41,100,4085,-294,40,67
15260,78,78,4103,-211,-1,64
15270,75,103,4110,-153,-17,52
15280,78,148,4105,-116,-33,50
15290,63,175,4086,-89,-54,53
15300,71,145,4074,-85,-75,66
15310,100,126,4052,-73,-89,61
15320,124,125,4022,-58,-92,37
15330,137,163,4000,-44,-80,18
15340,139,182,3999,-14,-53,-7
15350,145,214,4032,-13,-27,-17
15360,129,201,4070,-18,0,-9
15370,106,172,4098,-29,19,12
15380,137,116,4170,-47,25,21
15390,131,98,4188,-67,31,26
15400,95,105,4153,-72,29,40
15410,103,162,4119,-78,20,60
15420,84,189,4067,-78,8,67
15430,101,166,4039,-74,9,76
15441,104,170,4011,-70,-3,82
15451,85,156,4011,-73,-27,96
15461,100,196,4031,-75,-38,97
15471,162,175,4070,-80,-33,86
15481,236,143,4102,-111,-31,92
15491,239,134,4067,-111,-17,102
15501,239,130,4080,-101,15,108
15511,274,86,4099,-82,46,116
15521,256,132,4122,-97,46,153
15531,253,181,4127,-123,58,164
15541,262,202,4139,-120,81,178
15551,193,202,4126,-89,91,166
15561,28,201,4128,-29,106,105
15571,73,298,4163,0,118,21
15581,-230,292,4197,-47,64,-72
15591,305,196,4171,-38,-6,-261
15601,-26,102,4201,-45,-65,-140
15611,-1559,61,4304,-135,-302,-829
15621,64,76,4015,-221,-490,-1292
15631,1560,213,3865,-148,-391,-944
15642,1419,255,3938,20,-167,-302
15652,346,169,4055,64,-72,-19
15662,-98,166,4123,-1,-36,-116
15672,-74,83,4084,-146,-65,-326
15682,414,94,3994,-178,-53,-322
15692,595,72,3949,-114,11,-161
15702,388,42,4037,-110,72,-52
15712,255,71,4082,-132,106,-44
15722,402,142,4059,-137,127,-27
15732,807,289,3989,-92,173,147
15742,545,4,4098,-52,249,373
15752,175,-235,4032,-39,310,342
15762,326,-147,4010,12,384,259
15772,246,-120,3987,55,405,240
15782,76,-73,4048,52,367,236
15792,-19,-32,4057,-35,269,238
15802,-10,-35,4083,-65,174,184
15812,-28,-70,4097,-107,79,171
15822,-88,-67,4172,-178,-19,157
15832,139,-50,4309,-312,-93,107
15843,109,39,4250,-460,-91,-102
15853,129,-105,4111,-523,-86,-326
15863,419,-194,3978,-473,-9,-409
15873,458,-186,4051,-297,125,-463
15883,278,-81,4074,-197,193,-418
15893,149,-32,4017,-68,211,-403
15903,99,-40,4041,72,178,-370
15913,73,-4,4083,150,148,-326
15923,161,16,4072,144,136,-278
15933,136,99,4067,129,154,-222
15943,66,185,4080,71,141,-208
15953,83,142,4109,-19,108,-189
15963,102,78,4094,-81,96,-200
15973,112,45,4014,-127,102,-210
15983,21,62,3999,-169,103,-153
15993,-87,-4,4005,-230,70,-118
16003,75,-209,3971,-221,22,-110
16013,146,-308,4000,-158,11,-82
16023,167,-319,4030,-78,9,-58
16033,124,-290,4043,-24,8,-27
16044,-85,-212,4079,2,10,-62
16054,-57,-172,4084,-28,-1,-115
16064,-96,-102,4070,-66,-39,-144
16074,-110,-69,4071,-111,-94,-178
16084,17,-84,4043,-150,-133,-201
16094,130,-121,3989,-178,-140,-207
16104,248,-77,3994,-226,-107,-167
16114,559,-201,3935,-255,69,-287
16124,496,-462,3923,-61,236,-493
16134,-177,-181,4032,-26,223,-230
16144,-402,366,4078,-167,54,-36
16154,-360,285,4114,-364,-68,-75
16164,-121,37,4007,-465,-177,-56
16174,-49,-164,3991,-437,-197,-82
16184,93,-284,3969,-414,-193,-113
16194,226,-382,4065,-340,-158,-111
16204,326,-440,4121,-305,-71,-158
16214,324,-433,4142,-170,21,-219
16224,308,-147,4092,-70,131,-332
16234,72,-469,4148,-83,292,-463
16245,109,-313,4062,14,149,-202
16255,727,-290,4103,197,-69,-397
16265,332,-753,3948,259,224,-106
16275,-186,-232,4098,342,296,289
16285,361,17,4085,264,334,-211
16295,-50,-328,3995,237,434,-376
16305,-272,-287,4013,355,424,-318
16315,-243,-180,4046,299,379,-121
16325,-92,-132,4026,273,335,-45
16335,12,-194,4007,245,341,22
16345,41,-157,3998,235,405,112
16355,-90,-111,4027,225,417,129
16365,-422,-111,4045,227,380,51
16375,-364,-57,4081,174,261,43
16385,-311,42,4117,106,190,44
16395,-152,-43,4134,69,157,3
16405,-176,-122,4139,69,179,-5
16415,-176,-371,4169,-55,113,168
16425,-271,-45,4014,55,59,231
16435,-332,10,4095,140,65,221
16446,-232,95,4105,9,-76,57
16456,-161,-134,3969,38,59,-148
16466,-342,63,4031,94,-35,29
16476,-283,148,4030,98,-42,37
16486,-132,-58,4059,27,-83,64
16496,-50,-71,4013,-13,-92,80
16506,-69,-162,4044,14,-52,102
16516,-86,-196,4044,23,-58,133
16526,-153,-157,4099,6,-37,137
16536,-415,-103,4080,-63,-80,46
16546,-309,12,4060,-31,-150,-19
16556,-78,-118,4139,-11,-188,62
16566,-110,-332,4098,-43,-184,117
16576,-96,-269,4088,30,-197,146
16586,-54,-140,4094,91,-168,137
16596,-55,-158,4054,133,-123,176
16606,-37,-134,4003,230,-72,231
16616,-90,-37,4036,338,-31,208
16626,-155,10,4029,421,-8,185
16636,-209,-2,4061,479,-26,87
16647,-97,-60,4075,465,-60,66
16657,-217,150,4038,472,-89,-24
16667,-163,239,4084,440,-130,-148
16677,45,198,4047,341,-138,-202
16687,154,152,4010,257,-91,-211
16697,53,108,4010,219,-38,-268
16707,107,64,4017,208,-21,-304
16717,84,29,3982,188,6,-302
16727,96,68,3961,224,41,-311
16737,41,103,4004,259,77,-310
16747,43,140,4001,296,100,-271
16757,3,204,4045,320,101,-208
16767,-81,282,4072,298,89,-175
16777,-82,290,4138,228,48,-115
16787,-88,241,4136,167,38,-114
16797,-51,192,4110,106,37,-165
16807,30,145,4082,59,59,-177
16817,11,161,4046,64,77,-147
16827,-40,197,4052,85,98,-126
16837,-96,156,4049,129,103,-154
16848,-47,146,4064,162,98,-171
16858,-112,206,4086,183,85,-150
16868,-179,317,4105,187,63,-136
16878,-212,340,4120,170,34,-121
16888,-190,316,4119,155,6,-112
16898,-166,291,4125,148,-14,-107
16908,-175,288,4110,130,-33,-105
16918,-127,300,4098,121,-38,-107
16928,-82,246,4086,123,-15,-110
16938,-129,246,4081,118,-13,-123
16948,-107,297,4054,104,-10,-136
16958,-106,325,4017,80,-19,-137
16968,-93,311,4038,74,-26,-121
16978,-83,283,4037,52,-31,-110
16988,-98,261,4072,30,-29,-110
16998,-51,252,4075,20,-30,-98
17008,-96,251,4053,9,-23,-97
17018,-54,251,4065,5,-3,-97
17028,-61,253,4064,-13,5,-80
17038,-89,243,4075,-16,5,-77
17049,-79,241,4087,-30,-2,-64
17059,-98,270,4039,-15,7,-65
17069,-101,248,4070,-9,8,-67
17079,-68,233,4048,-6,16,-69
17089,-122,265,4062,1,23,-84
17099,-142,281,4068,29,14,-111
17109,-104,374,4079,23,14,-109
17119,-127,349,4087,15,14,-102
17129,-120,300,4080,5,11,-101
17139,-112,301,4063,-2,16,-114
17149,-136,285,4078,-11,19,-85
17159,-167,352,4062,-32,-2,-68
17169,-189,320,4060,-53,-9,-69
17179,-173,308,4081,-67,-24,-72
17189,-144,293,4071,-83,-31,-81
17199,-120,294,4079,-91,-36,-87
17209,-67,293,4057,-92,-20,-73
17219,-121,254,4066,-56,5,-63
17229,-135,288,4078,-43,4,-67
17239,-141,327,4065,-53,4,-73
17249,-231,342,4019,-36,7,-66
17259,-209,305,4068,-18,-19,-45
17269,-150,259,4056,-41,-32,-19
17279,-191,279,4045,-23,-40,-21
17289,-112,295,4058,-26,-38,-22
17300,-101,287,4037,-25,-19,-9
17310,-147,292,4066,-28,-19,-14
17320,-119,289,4075,-44,-16,-13
17330,-106,263,4062,-60,-12,-9
17340,-112,264,4051,-61,-1,2
17350,-202,263,4036,1,22,-8
17360,-433,231,3998,82,5,-65
17370,-497,248,4021,233,8,-138
17380,-793,533,4023,437,-27,-346
17390,-1154,252,4064,611,-52,-679
17400,-366,255,4064,672,-133,-898
17410,331,704,4066,611,-126,-755
17420,331,1033,4065,404,-158,-688
17430,62,603,4065,142,-190,-302
17440,121,509,4056,-77,-173,-157
17450,149,302,4038,-197,-122,-90
17460,209,166,4063,-249,-80,-67
17470,291,116,4098,-264,-49,-56
17480,306,72,4097,-263,-9,-70
17490,357,204,4087,-207,31,-58
17500,166,337,4141,-151,57,-44
17510,100,615,4133,-164,44,24
17520,196,671,4140,-245,54,164
17530,1082,622,4242,-379,133,579
17540,173,502,4061,-482,167,742
17551,-516,290,4017,-543,178,866
17561,-1056,-151,4025,-538,99,566
17571,-341,-155,4036,-425,-21,295
17581,-205,96,3964,-273,38,211
17591,-455,43,4022,-55,32,22
17601,-366,362,4047,101,-8,-35
17611,-511,355,4039,210,-17,-199
17621,-96,244,4101,292,-42,-203
17631,45,400,4100,281,-33,-150
17641,-169,196,4094,231,-9,-181
17651,-148,180,4072,152,-57,-239
17661,-55,216,4035,56,-45,-337
17671,-2,197,3973,-21,-33,-348
17681,-302,-55,4008,-67,-39,-380
17691,137,244,3992,-90,-19,-180
17701,68,304,4037,-64,22,-107
17711,0,370,4150,-55,-11,-33
17721,47,362,4199,-100,-34,22
17731,64,335,4134,-124,-11,61
17741,49,246,4121,-98,2,91
17751,92,252,4108,-63,11,109
17761,139,262,4113,-33,36,139
17771,132,279,4068,-8,64,149
17781,198,320,4085,5,97,164
17791,267,487,4064,-4,146,257
17802,-77,630,4035,-49,221,384
17812,-479,561,4095,-104,197,426
17822,-738,433,4117,-195,112,296
17832,-683,226,4107,-251,7,75
17842,-366,158,4056,-326,-61,0
17852,-257,176,4024,-359,-87,-81
17862,-76,-37,4041,-334,-90,-131
17872,-18,-39,4023,-281,-74,-85
17882,-63,64,4058,-201,-47,-70
17892,-90,95,4070,-145,-38,-57
17902,-59,64,4072,-101,-14,-25
17912,-105,100,4036,-63,-2,-30
17922,-80,86,4041,-41,18,-25
17932,-107,122,3990,-23,18,-17
17942,-102,113,4024,-5,18,-24
17952,-91,142,4019,-7,21,-1
17962,-81,165,4059,4,35,0
17972,-155,142,4061,-4,39,-19
17982,-114,171,4072,-1,23,-42
17992,-123,201,4099,2,24,-43
18002,-146,209,4109,5,21,-43
18012,-161,225,4092,-22,15,-46
18022,-158,232,4097,-44,8,-54
18032,-116,230,4062,-62,1,-37
18042,-123,194,4055,-61,11,-15
18053,-105,179,4014,-48,24,1
18063,-119,173,4050,-22,30,15
18073,-140,179,4085,-15,40,29
18083,-247,174,4066,-10,29,12
18093,-219,160,4094,-17,23,-2
18103,-165,158,4090,-22,18,-10
18113,-198,148,4094,-24,15,-17
18123,-180,127,4076,-27,20,-18
18133,-170,121,4069,-26,16,-15
18143,-157,109,4086,-20,7,-2
18153,-141,126,4054,-18,3,6
18163,-173,111,4063,-16,14,22
18173,-225,70,4060,-18,3,-21
18183,-96,139,4042,-16,16,-15
18193,-123,136,4054,-15,23,-15
18203,-136,144,4069,-10,19,-12
18213,-173,173,4077,-12,17,-17
18223,-166,163,4101,-27,19,-35
18233,-119,165,4075,-34,18,-39
18243,-126,159,4085,-31,18,-30
18253,-120,137,4055,-27,8,-32
18263,-124,157,4068,-13,10,-24
18273,-131,152,4066,-10,12,-13
18283,-142,194,4077,-3,5,3
18293,-150,187,4083,-1,6,29
18304,-163,154,4071,-17,-4,28
18314,-139,108,4065,-21,0,8
18324,-165,119,4050,-30,0,-13
18334,-144,129,4049,-27,-1,-13
18344,-152,144,4085,-32,-1,-7
18354,-142,126,4060,-34,-6,-1
18364,-119,72,4071,-22,13,0
18374,-146,128,4068,2,16,-6
18384,-148,121,4066,0,18,-12
18394,-131,131,4063,-3,24,-13
18404,-180,146,4067,-8,22,-6
18414,-214,149,4065,-21,21,3
18424,-198,176,4058,-32,9,12
18434,-179,132,4059,-36,2,10
18444,-166,135,4077,-33,0,18
18454,-179,148,4070,-38,-1,13
18464,-175,159,4074,-42,1,11
18474,-162,152,4058,-40,-8,13
18484,-121,109,4066,-31,3,12
18494,-129,101,4080,-20,4,2
18504,-154,132,4066,-7,18,-8
18514,-166,156,4088,-4,15,-11
18524,-188,164,4096,-9,5,-7
18534,-167,143,4060,-14,-3,6
18544,-185,178,4077,-9,-6,3
18555,-175,152,4082,-20,-13,-2
18565,-138,146,4080,-25,-8,-6
18575,-144,140,4057,-23,-15,6
18585,-129,138,4062,-15,-8,8
18595,-110,122,4062,-23,-2,4
18605,-146,112,4046,-17,8,0
18615,-183,133,4061,-8,2,-10
18625,-165,127,4058,-12,-2,-13
18635,-142,76,4065,-22,-1,-14
18645,-152,99,4057,-23,6,-3
18655,-164,121,4070,-35,3,-6
18665,-174,102,4056,-33,0,0
18675,-155,94,4080,-20,1,-8
18685,-129,116,4086,-21,2,-5
18695,-134,131,4073,-25,2,-5
18705,-162,132,4055,-25,8,-1
18715,-159,151,4072,-12,4,4
18725,-139,150,4059,-16,4,3
18735,-153,93,4071,-19,12,8
18745,-179,151,4063,-16,12,-1
18755,-179,150,4079,-21,8,11
18765,-163,113,4064,-29,6,5
18775,-140,122,4064,-26,11,4
18785,-161,128,4066,-16,13,16
18795,-200,110,4068,-11,12,12
18806,-189,106,4070,-10,6,2
18816,-214,125,4069,-7,10,0
18826,-217,124,4043,-3,5,-11
18836,-189,133,4061,0,-8,-6
18846,-167,131,4071,-8,-3,1
18856,-139,93,4057,-15,-3,3
18866,-156,103,4066,-13,7,-5
18876,-178,118,4059,-16,10,3
18886,-175,122,4056,-27,10,5
18896,-180,143,4059,-37,13,-5
18906,-171,123,4080,-37,5,1
18916,-188,109,4068,-36,9,-5
18926,-180,95,4086,-27,16,-4
18936,-196,109,4069,-3,4,-2
18946,-203,120,4079,-2,2,-2
18956,-186,155,4092,-6,-2,1
18966,-180,138,4074,-8,-2,5
18976,-191,105,4061,-14,-9,5
18986,-175,97,4061,-15,-10,-4
18996,-181,133,4066,-16,-7,-1
19006,-180,121,4065,-29,-9,-5
19016,-166,95,4063,-40,-12,-6
19026,-150,94,4078,-33,-2,-8
19036,-162,92,4067,-34,1,-10
19046,-179,87,4066,-19,5,-5
19057,-184,104,4067,-19,2,-20
19067,-158,92,4061,-15,4,-28
19077,-177,123,4065,-15,2,-25
19087,-269,123,4059,-18,-2,-25
19097,-222,105,4065,-19,-20,-23
19107,-212,83,4091,-23,-21,-32
19117,-158,93,4063,-49,-38,-41
19127,-145,83,4051,-31,-21,-43
19137,-143,90,4052,-23,-22,-40
19147,-250,104,4063,-4,-12,-53
19157,-306,91,4050,-1,-24,-85
19167,-381,145,4053,7,-53,-133
19177,-382,142,4060,59,-64,-167
19187,-331,-126,4054,105,-80,-206
19197,-392,32,4032,202,-97,-305
19207,-333,162,4073,255,-110,-355
19217,-348,299,4070,267,-122,-361
19227,-428,-76,4039,239,-115,-393
19237,-267,78,3995,248,-101,-436
19247,79,447,4078,214,-73,-182
19258,-386,453,4135,90,-167,-35
19268,-230,387,4084,-83,-276,10
19278,56,92,4057,-167,-256,99
19288,20,141,4036,-146,-271,165
19298,89,68,4101,-140,-250,132
19308,77,116,4087,-173,-220,122
19318,65,30,4023,-204,-114,107
19328,109,-29,4012,-184,-58,63
19338,135,-121,4017,-103,3,6
19348,73,30,4086,20,38,30
19358,3,156,4130,65,40,62
19368,38,202,4149,67,36,112
19378,15,202,4142,84,28,150
19388,75,143,4098,102,28,175
19398,68,167,4071,147,25,213
19408,1,184,4080,173,27,202
19418,44,256,4082,140,27,192
19428,75,278,4064,76,38,148
19438,77,281,4050,3,67,97
19448,84,216,4043,-66,97,67
19459,-9,188,4042,-143,135,69
19469,35,162,4038,-184,190,90
19479,58,77,4063,-176,237,158
19489,-416,-34,4010,-153,315,375
19499,-94,-144,4115,-14,314,366
19509,-658,-50,4116,48,289,338
19519,-746,47,4100,88,186,105
19529,-427,154,4069,62,128,-5
19539,-292,179,4013,32,99,-55
19549,-271,176,4013,22,46,-83
19559,-156,202,4028,-24,23,-81
19569,-168,239,4019,-54,26,-77
19579,-218,236,4043,-83,24,-55
19589,-159,251,4041,-108,19,-47
19599,-203,197,4043,-104,31,-18
19609,-190,129,4055,-89,37,-24
19619,-263,124,4056,-70,20,-35
19629,-236,139,4079,-58,18,-42
19639,-201,158,4076,-57,15,-42
19649,-230,142,4090,-43,19,-41
19660,-221,158,4098,-24,5,-36
19670,-226,192,4118,-25,6,-33
19680,-230,192,4080,-31,-6,-32
19690,-202,172,4058,-39,-6,-20
19700,-186,163,4043,-32,5,-16
19710,-199,167,4041,-29,0,-19
19720,-182,143,4032,-32,0,-15
19730,-193,122,4055,-23,0,-7
19740,-187,117,4086,-14,4,5
19750,-185,85,4100,-19,5,7
19760,-136,59,4078,-6,16,-3
19770,-160,63,4068,1,17,-2
19780,-191,105,4060,16,21,3
19790,-248,148,4052,14,9,-8
19800,-166,155,4055,0,-2,-3
19810,-165,126,4055,-16,0,-3
19820,-170,125,4047,-25,-9,4
19830,-163,117,4042,-21,-6,1
19840,-164,117,4058,-14,18,3
19850,-202,115,4083,-6,5,-8
19861,-192,126,4077,3,8,-7
19871,-238,165,4098,6,6,-9
19881,-177,138,4082,2,-2,-25
19891,-175,124,4068,1,1,-19
19901,-215,130,4054,4,3,-17
19911,-230,133,4073,7,-8,-24
19921,-177,119,4054,-7,1,-27
19931,-175,108,4031,5,2,-31
19941,-198,120,4076,9,9,-36
19951,-168,133,4056,0,3,-28
19961,-236,177,4072,8,1,-17
19971,-230,144,4085,-8,-12,-17
19981,-167,136,4060,-12,-14,-11
19991,-172,129,4060,-3,-6,5
20001,-183,142,4055,-10,2,14
20011,-207,99,4065,-18,6,4
20021,-189,107,4038,-2,1,-1
20031,-175,108,4090,4,3,1
20041,-196,129,4081,5,0,-6
20051,-192,141,4078,2,6,1
20062,-218,162,4069,-2,-1,-1
20072,-227,156,4062,3,-3,5
20082,-219,148,4058,6,-8,-2
20092,-162,146,4051,0,-9,11
20102,-160,158,4063,-13,-8,10
20112,-158,152,4069,-23,0,20
20122,-197,125,4054,-14,1,0
20132,-165,109,4065,1,0,-8
20142,-168,131,4086,13,3,-16
20152,-186,130,4083,15,3,-21
20162,-206,114,4080,6,10,-30
20172,-182,145,4065,5,8,-28
20182,-217,135,4031,-2,3,-27
20192,-222,158,4056,3,-3,-22
20202,-220,141,4059,-5,-15,-23
20212,-193,160,4070,5,-16,-17
20222,-182,145,4073,3,-11,-12
20232,-197,155,4077,6,-14,0
20242,-177,111,4070,9,-4,-8
20252,-199,143,4080,14,5,-12
20263,-194,168,4073,-2,9,-12
20273,-224,164,4039,3,6,-17
20283,-215,157,4034,-3,0,-2
20293,-185,171,4038,-5,6,7
20303,-226,144,4041,-12,-1,5
20313,-215,124,4043,-4,-1,-12
20323,-195,127,4081,5,-1,-17
20333,-236,148,4086,9,4,-25
20343,-224,150,4095,-2,-5,-28
20353,-162,139,4077,-9,-1,-22
20363,-185,149,4058,-11,-3,-15
20373,-203,144,4055,-9,-7,-12
20383,-178,139,4074,-12,-10,-1
20393,-188,138,4064,-4,-9,6
20403,-173,141,4053,-3,-13,5
20413,-176,142,4062,8,-5,-1
20423,-201,154,4059,14,-7,-9
20433,-155,137,4069,13,3,-8
20443,-198,149,4074,18,6,-19
20453,-190,152,4069,26,-1,-21
20464,-173,157,4080,26,5,-18
20474,-216,183,4057,8,-2,-22
20484,-224,147,4069,8,-8,-14
20494,-206,152,4046,22,-14,-10
20504,-189,144,4075,23,-19,-14
20514,-154,160,4062,30,-16,-16
20524,-191,156,4053,24,-4,-11
20534,-212,154,4050,29,-4,-14
20544,-200,161,4084,29,1,-19
20554,-197,173,4077,21,-4,-12
20564,-193,178,4075,4,4,-4
20574,-206,158,4044,7,-1,0
20584,-200,148,4074,24,-4,-11
20594,-192,133,4066,25,0,-14
20604,-172,167,4073,24,1,-19
20614,-226,189,4061,21,0,-11
20624,-194,165,4063,19,5,-13
20634,-212,177,4052,35,9,-19
20644,-220,155,4065,28,9,-18
20654,-238,179,4061,39,-6,-30
20665,-230,184,4069,51,-4,-35
20675,-175,172,4063,49,-2,-45
20685,-189,193,4081,64,-1,-30
20695,-188,210,4069,57,-2,-17
20705,-197,210,4094,46,-8,-8
20715,-207,227,4062,29,-9,-18
20725,-255,202,4023,38,-13,-35
20735,-145,152,4052,55,-2,-44
20745,-135,196,3999,84,25,-41
20755,-225,251,4052,157,26,-58
20765,-269,381,4034,194,12,-61
20775,-170,263,4070,224,19,-76
20785,-146,126,4061,280,52,-93
20795,-290,420,4050,361,78,-105
20805,-192,242,4130,372,56,-146
20815,-141,275,4091,351,76,-149
20825,-217,389,4082,320,68,-167
20835,-150,166,4040,337,84,-158
20845,-91,84,4032,392,84,-97
20855,-135,380,4004,493,121,-59
20866,5,331,4034,629,191,-45
20876,-82,767,4002,735,257,22
20886,-16,514,4144,793,308,77
20896,-36,376,4129,709,332,189
20906,-139,396,4089,687,411,241
20916,-218,277,4141,739,410,261
20926,-399,304,4126,761,339,256
20936,-422,360,4125,767,291,234
20946,-574,422,4149,836,240,161
20956,-593,717,4234,812,154,114
20966,-409,638,4157,739,87,88
20976,-445,530,4026,722,54,37
20986,-288,627,3911,776,63,-59
20996,-132,561,3874,862,134,-125
21006,-143,699,3820,956,190,-123
21016,-313,730,3869,987,223,-111
21026,-426,874,3868,950,215,-45
21036,-395,970,3890,909,201,-10
21046,-447,1130,3935,824,178,21
21056,-359,996,3893,777,170,14
21067,-459,1131,3932,699,152,68
21077,-502,1227,3914,608,141,40
21087,-398,1156,3871,560,144,34
21097,-441,1112,3836,592,187,24
21107,-453,1253,3856,576,202,20
21117,-531,1318,3818,501,197,40
21127,-544,1369,3802,400,168,56
21137,-597,1374,3821,309,140,57
21147,-564,1362,3822,211,111,81
21157,-639,1455,3831,124,92,100
21167,-524,1311,3814,96,86,83
21177,-561,1199,3829,145,88,67
21187,-540,1166,3894,178,91,46
21197,-570,1265,3882,194,91,44
21207,-627,1239,3889,240,109,37
21218,-647,1264,3908,228,104,48
21228,-595,1284,3883,228,103,67
21238,-585,1401,3878,195,108,92
21248,-663,1396,3871,192,110,67
21258,-633,1299,3855,151,90,26
21268,-591,1316,3857,111,69,26
21278,-511,1297,3863,97,63,21
21288,-549,1265,3847,98,58,10
21298,-571,1285,3875,105,60,-1
21308,-545,1280,3866,103,59,7
21318,-474,1362,3841,84,55,27
21328,-566,1307,3835,115,73,31
21338,-553,1366,3812,131,64,41
21348,-539,1306,3830,135,80,26
21359,-577,1402,3847,117,70,14
21369,-525,1388,3839,113,65,24
21379,-590,1383,3852,128,53,14
21389,-535,1391,3856,128,48,-6
21399,-561,1352,3834,110,35,-2
21409,-563,1371,3829,88,24,1
21419,-540,1307,3794,82,22,-2
21429,-572,1355,3781,63,10,2
21439,-573,1396,3788,55,13,4
21449,-572,1379,3809,50,14,9
21459,-576,1431,3834,31,14,24
21469,-557,1404,3833,-15,9,26
21479,-547,1376,3802,-39,7,36
21489,-626,1412,3792,-40,7,25
21500,-573,1334,3805,-26,10,2
21510,-592,1389,3828,-19,14,3
21520,-610,1406,3831,-22,14,6
21530,-558,1403,3813,-33,9,11
21540,-582,1377,3818,-37,3,10
21550,-594,1389,3788,-38,-1,29
21560,-590,1376,3792,-58,-4,43
21570,-626,1425,3796,-87,-16,42
21580,-603,1394,3817,-98,-18,47
21590,-594,1416,3830,-103,-20,56
21600,-576,1400,3833,-133,-34,66
21610,-547,1400,3813,-175,-49,85
21620,-548,1392,3819,-200,-48,101
21630,-558,1342,3829,-224,-54,107
21640,-536,1341,3840,-268,-74,117
21651,-546,1332,3883,-326,-88,142
21661,-507,1304,3874,-419,-105,166
21671,-526,1310,3899,-514,-119,210
21681,-565,1300,3877,-642,-144,243
21691,-624,1215,3909,-745,-186,223
21701,-593,1159,3978,-853,-227,115
21711,-628,1185,4056,-994,-287,-48
21721,-588,1099,4178,-1170,-385,-256
21731,-625,1003,4208,-1326,-487,-354
21741,-602,911,4083,-1376,-561,-383
21751,-726,810,4207,-1370,-675,-430
21761,-552,864,4197,-1322,-753,-373
21771,-396,917,4067,-1242,-740,-216
21781,-145,938,4043,-1101,-773,-31
21792,5666,2220,5406,-1414,-754,1196
21802,588,584,3821,-2224,-240,2129
21812,-2014,-417,3736,-1256,639,1338
21822,-2132,-754,3753,-1016,-105,522
21832,-1026,-259,3592,-520,-552,113
21842,13,169,3850,-158,-672,54
21852,878,1005,3962,-346,-423,-156
21862,-76,1365,4323,-1310,-87,823
21872,-772,601,3850,-1164,-641,866
21882,-170,-491,4050,-845,-536,192
21892,353,-554,3906,-582,-381,264
21902,342,-82,3936,-209,-154,387
21912,168,474,4061,-109,-31,283
21922,-79,706,4045,-129,10,282
21933,-429,593,4112,-183,-78,303
21943,-390,404,3956,-89,-61,203
21953,-291,286,4038,-34,-125,252
21963,-76,267,4069,75,-7,283
21973,456,-1096,4209,-14,95,336
21983,-189,1442,3568,251,446,578
21993,-854,1401,4449,150,145,582
22003,-662,787,3991,-304,-164,372
22013,-29,582,3883,-211,-276,162
22023,1529,426,3860,-188,-265,73
22033,-82,-146,4294,-397,290,668
22043,-1081,324,4075,-550,11,332
22053,-817,689,4038,-640,-167,137
22063,-3,618,3812,-715,-384,7
22074,26,179,3720,-743,-236,286
22084,-270,-77,3668,-698,-273,429
22094,-236,-168,3748,-502,-243,285
22104,-42,66,3941,-368,-188,133
22114,198,418,4122,-415,-100,39
22124,242,399,4128,-410,25,8
22134,151,211,4201,-309,154,22
22144,-53,65,4246,-159,202,81
22154,-198,168,4280,34,225,61
22164,-124,264,4377,143,219,22
22174,-38,244,4387,139,159,-17
22184,-95,305,4313,182,100,38
22194,-165,500,4270,152,64,40
22204,-125,551,4124,82,11,-4
22214,-20,371,4039,63,31,-32
22224,113,158,3997,81,72,-35
22234,87,44,3934,133,111,61
22244,-71,89,4001,233,125,163
22254,-180,33,4049,248,43,251
22264,328,576,4024,403,67,225
22274,658,1190,4200,496,478,343
22284,44,155,4229,321,208,781
22294,91,-237,3918,277,71,921
22304,-191,-116,3876,539,-54,1082
22314,-136,289,3917,707,-44,1149
22324,-574,294,4123,625,87,901
22334,-418,475,4064,467,149,688
22344,-336,406,3986,189,74,412
22354,-390,308,3943,180,135,133
22364,-293,-50,3999,206,134,-88
22374,-296,-4,3997,209,171,-164
22384,-307,261,4096,200,176,-164
22394,-312,255,4181,152,135,-151
22404,-287,213,4204,80,100,-113
22415,-373,178,4164,-10,82,-52
22425,-407,187,4102,-71,55,-4
22435,-417,332,4093,-135,32,61
22445,-466,514,4090,-285,18,136
22455,-461,622,4058,-457,3,180
22465,-552,888,4049,-590,5,19
22475,-379,750,4018,-688,-27,-217
22485,-128,395,3952,-581,-95,-369
22495,-2024,-67,4366,-380,-88,-315
22505,56,202,3818,-284,-169,-479
22515,-76,247,4096,-128,-163,-367
22525,-95,298,4139,-108,-180,-322
22535,-58,250,4144,-89,-188,-246
22545,-72,155,4102,-36,-173,-174
22555,-81,167,4102,37,-133,-129
22565,-65,236,4103,97,-126,-97
22575,-5,316,4077,108,-107,-75
22585,35,366,4044,81,-77,-30
22595,29,365,4046,45,-54,53
22605,8,329,4048,18,-31,109
22615,13,299,4015,-35,-27,163
22625,-62,202,4040,-80,-28,228
22635,-90,197,3995,-36,-45,221
22645,-136,77,4041,44,-44,177
22655,-139,22,4049,79,-65,130
22665,-149,127,4071,136,-68,67
22675,-190,257,4143,152,-60,-1
22685,-164,254,4127,106,-61,-47
22695,-146,289,4087,62,-65,-40
22705,-144,316,4067,15,-78,0
22715,-113,308,4028,-23,-65,33
22725,-105,310,4026,-37,-55,67
22735,-140,258,4041,-57,-30,65
22746,-86,302,3991,-45,-43,35
22756,-85,259,4039,6,-22,49
22766,-66,316,4074,-13,-18,63
22776,-75,366,4131,-26,-6,72
22786,-129,314,4127,-58,-7,80
22796,-105,315,4134,-54,-12,82
22806,-147,339,4143,-61,-12,76
22816,-172,294,4113,-96,-25,101
22826,-167,166,4044,-106,-65,137
22836,-146,181,3997,-30,-88,126
22846,-120,197,4034,18,-60,53
22856,-81,168,4043,-6,-22,5
22866,86,137,3940,57,-21,11
22876,128,103,3993,169,42,44
22886,47,291,3995,186,82,147
22896,-60,419,3969,235,85,159
22906,798,947,4150,178,70,-73
22916,-72,206,4097,220,133,90
22926,-72,115,4025,178,86,36
22936,-160,219,4062,204,48,-1
22946,-262,195,4115,221,28,-69
22956,-190,233,4169,238,-11,-101
22966,-182,376,4203,185,-31,-65
22976,-201,363,4156,77,-51,-9
22986,-260,329,4109,-21,-51,21
22996,-200,300,4055,-74,-78,58
23006,-260,447,4077,-138,-76,95
23016,-183,580,4050,-239,-68,94
23026,-93,500,4030,-257,-72,-23
23036,-27,350,4060,-205,-117,-285
23046,-5,323,4070,-131,-106,-370
23056,-1992,-26,4334,-59,52,-198
23066,13,420,3883,-245,-104,-382
23077,-77,323,4073,-152,-47,-297
23087,-80,262,4100,-121,-128,-184
23097,0,202,4140,-43,-85,-104
23107,240,452,4001,-62,266,-20
23117,-165,143,4191,28,-47,-13
23127,167,296,4085,5,-41,79
23137,-182,430,4084,21,64,-1
23147,-35,369,4032,37,66,-121
23157,-2371,1364,4011,25,-54,-695
23167,-236,506,4214,-258,-392,-1328
23177,1639,-113,3866,-421,-255,-932
23187,1446,-167,3832,-228,132,-123
23197,107,109,4019,-100,198,399
23207,-748,359,4071,-105,110,303
23217,-644,345,4115,-148,-26,-17
23227,-131,172,4065,-153,-102,-129
23237,96,25,4061,-90,-119,-39
23247,48,24,4071,-11,-96,59
23257,-95,71,4058,51,-100,78
23267,-142,182,4069,117,-132,60
23277,-109,395,4073,103,-150,64
23287,4,485,4074,19,-119,9
23297,145,484,4070,-90,-57,-42
23307,258,398,4043,-197,51,-52
23317,208,240,4022,-250,165,-64
23328,104,58,4004,-181,225,-72
23338,8,-13,4065,-38,248,-80
23348,-99,125,4095,-37,233,-46
23358,-80,204,4094,-56,215,-94
23368,-30,236,4077,-90,223,-90
23378,-74,158,4039,-89,186,-45
23388,-120,135,4063,-78,159,-19
23398,-121,101,4009,-82,102,-91
23408,-309,313,3931,127,-41,-385
23418,219,43,4150,92,-28,-270
23428,-85,-28,4149,-16,86,-163
23438,-458,130,4166,-33,77,-172
23448,-392,279,4127,-48,-37,-125
23458,459,152,4040,-119,86,309
23468,-82,285,4097,-71,184,392
23478,-611,312,4062,-151,81,357
23488,-717,468,3997,-164,-47,198
23498,-450,361,4058,-196,-129,90
23508,-117,110,4043,-139,-192,29
23518,107,-54,4085,-32,-148,-27
23528,207,-27,4110,23,-19,-53
23538,104,108,4110,22,114,-78
23548,-87,257,4109,25,162,-60
23558,-273,317,4097,-10,124,-54
23568,-266,315,4062,-76,65,-90
23579,-172,204,4011,-101,6,-104
23589,-133,55,4003,-65,-44,-63
23599,-176,20,4035,-34,-66,32
23609,-213,-41,4025,26,-88,54
23619,-212,2,4085,109,-114,68
23629,-178,184,4151,79,-138,88
23639,-168,358,4124,5,-137,85
23649,-119,432,4099,-100,-114,68
23659,-115,399,4058,-178,-105,80
23669,-132,310,4037,-210,-116,68
23679,-99,203,4052,-196,-129,29
23689,-29,211,4045,-189,-98,5
23699,26,178,4051,-149,-55,-13
23709,39,-59,4092,-147,-12,-45
23719,87,-211,4028,-16,15,-117
23729,12,-139,4072,114,53,-86
23739,-41,74,4115,165,80,-82
23749,99,397,4138,150,115,-8
23759,-277,422,4127,36,66,34
23769,-272,301,4053,-61,7,-2
23779,-99,129,4074,-60,25,73
23789,-141,-36,4064,-158,9,141
23799,-242,44,3992,-108,-67,178
23809,1209,19,4123,-249,104,345
23819,-1249,507,4215,68,-341,-46
23830,-67,42,4544,-236,-227,-60
23840,39,-23,4055,-209,-352,-54
23850,8,-284,3877,53,-193,-219
23860,1029,-308,3930,568,-178,-389
23870,1365,-1086,4450,477,311,138
23880,1031,-466,4173,991,561,441
23890,-1513,134,5418,438,549,549
23900,-1593,1791,3907,468,-173,-729
23910,370,910,4194,256,-137,-116
23920,45,-160,4088,-189,-5,163
23930,131,-628,3832,-48,-82,464
23940,262,-595,4022,291,62,1010
23950,429,220,3903,284,67,1115
23960,-298,209,4109,153,-27,975
23970,-174,172,3923,174,-43,617
23980,-217,-210,4080,274,64,315
23990,-160,-55,3946,288,44,170
24000,-128,345,4036,416,104,47
24010,-73,656,4201,371,130,7
24020,222,597,4199,213,161,129
24030,-471,578,4215,22,169,187
24040,-339,439,4118,-74,149,89
24050,-379,469,4091,-138,112,51
24060,-458,756,4095,-195,64,-4
24070,-435,940,4119,-266,-27,-52
24081,-481,963,4043,-319,-49,-121
24091,-675,909,4181,-379,-36,-284
24101,39,642,4175,-474,4,-280
24111,-58,1156,4150,-556,33,-177
24121,502,-186,4060,-620,38,61
24131,15,-82,3974,-393,74,178
24141,220,159,4023,-130,22,194
24151,-3963,2525,4185,-125,104,-348
24161,-1690,1218,4749,-373,-418,-1424
24171,1060,338,4131,-1037,-997,-1394
24181,2324,-527,3753,-981,-550,-701
24191,1779,-1195,3768,-602,13,22
24201,448,-1055,3814,-69,324,354
24211,-634,-318,4251,-263,518,516
24221,-1093,661,3947,-143,-32,293
24231,-659,151,4150,-57,-209,-131
24241,39,-307,4009,-78,-299,-98
24252,444,-290,4045,-31,-165,84
24262,342,9,4092,-44,-1,236
24272,-33,267,4030,-139,62,317
24282,-318,308,4026,-270,-7,239
24292,-278,203,4012,-398,-108,99
24302,-81,55,3990,-474,-153,54
24312,4,-92,4012,-474,-120,109
24322,-4,-164,4054,-418,-84,168
24332,-150,-87,3697,-90,-239,146
24342,496,24,3993,337,-193,300
24352,329,172,4165,343,-22,347
24362,-72,-397,4176,291,123,-35
24372,-170,-617,4069,291,137,-140
24382,-300,-55,4124,431,7,-78
24392,-243,333,4231,365,-69,-60
24402,-224,350,4133,215,-161,-5
24412,-129,135,4052,156,-211,10
24423,-35,-61,4013,120,-203,60
24433,2,19,3989,116,-178,120
24443,11,48,4009,108,-198,197
24453,88,58,4055,115,-148,146
24463,143,131,4099,132,-89,45
24473,62,33,4134,159,-65,16
24483,-58,-108,4140,154,-64,44
24493,-125,68,4101,207,-131,160
24503,-90,209,4096,280,-219,239
24513,-42,96,4102,248,-243,309
24523,-90,85,4056,179,-269,431
24533,117,262,3991,164,-302,471
24543,192,187,3962,190,-304,511
24553,327,202,3967,209,-241,534
24563,223,300,3993,153,-155,579
24573,266,466,4011,100,-77,633
24584,-177,158,3962,101,-224,866
24594,-372,204,3883,373,-484,1284
24604,-222,70,3896,632,-716,1532
24614,64,128,3785,837,-705,1183
24624,-177,-277,4113,934,-751,775
24634,270,-377,4113,985,-732,421
24644,321,-247,4312,863,-608,-71
24654,397,385,4364,667,-519,-369
24664,463,680,4263,473,-466,-451
24674,538,768,4186,314,-433,-400
24684,263,400,4065,225,-388,-211
24694,285,131,3946,321,-395,-55
24704,390,278,3930,321,-414,-63
24714,511,483,3952,312,-399,-135
24724,623,602,4058,269,-381,-176
24734,830,838,4140,223,-324,-251
24744,1075,1289,4218,76,-187,-272
24755,1234,1479,4240,-148,78,-283
24765,1200,1434,4210,-353,293,-141
24775,1281,1350,4177,-575,541,-50
24785,1033,1033,4131,-798,797,-25
24795,166,422,4014,-875,886,140
24805,-59,-22,3913,-748,812,222
24815,-160,15,3885,-514,651,114
24825,-227,-103,3967,-286,454,-51
24835,-79,-118,4053,-135,265,-163
24845,60,63,4132,-43,168,-324
24855,133,198,4173,-62,143,-416
24865,202,301,4116,-109,117,-400
24875,235,386,4057,-164,126,-340
24885,186,400,3993,-241,134,-224
24895,132,325,3947,-279,106,-120
24905,215,254,3903,-239,84,-86
24915,226,166,3964,-201,86,-79
24926,216,203,3989,-212,113,-17
24936,44,126,4061,-227,137,85
24946,-78,194,3907,-77,35,12
24956,-1,189,4096,177,-77,-149
24966,109,170,4211,91,-83,-140
24976,169,380,4213,23,-87,-116
24986,293,553,4177,-52,-74,-34
24996,262,616,4118,-131,-41,65
25006,253,466,4062,-196,19,85
25016,263,247,4026,-229,56,74
25026,267,198,4038,-221,109,71
25036,306,241,4084,-273,153,104
25046,182,223,4063,-329,181,152
25056,102,257,3978,-173,106,94
25066,33,14,4058,-39,35,92
25076,84,-99,4088,-21,33,85
25087,75,34,4102,3,21,-34
25097,134,416,4067,25,-19,-122
25107,171,443,4074,29,-48,-178
25117,253,180,4074,12,-45,-168
25127,289,138,4084,-27,-22,-154
25137,257,253,4054,-73,5,-115
25147,283,212,4024,-112,24,-39
25157,267,182,4026,-131,47,20
25167,254,218,4029,-103,61,55
25177,205,201,4070,-90,61,66
25187,186,131,4100,-85,53,55
25197,130,184,4096,-54,44,11
25207,88,158,4117,-10,28,5
25217,88,218,4084,-16,15,12
25227,103,263,4070,-3,21,-77
25237,91,90,4037,-15,-4,-68
25247,83,52,4015,-5,-3,-41
25257,82,189,4023,-10,-32,17
25267,178,248,4024,-14,-59,84
25277,57,240,4056,-22,-75,186
25287,215,265,4077,-7,-107,268
25297,270,226,4159,-38,-72,276
25307,231,252,4137,-51,-38,279
25317,208,264,4122,-34,-30,275
25327,219,312,4083,-27,-9,214
25338,118,365,4052,-2,-3,116
25348,142,174,4118,-18,-5,7
25358,203,69,4102,-18,-9,-20
25368,227,255,4079,46,-11,-59
25378,244,230,4094,33,12,-49
25388,158,159,4063,-19,21,42
25398,38,5,3999,-57,33,127
25408,-213,-8,3883,-58,-11,246
25418,-473,-162,3858,144,-343,631
25428,-118,-293,3877,404,-531,879
25438,47,-240,3924,523,-576,674
25448,235,-188,3985,532,-535,404
25458,507,145,4044,578,-462,9
25468,297,408,4184,502,-420,-195
25478,328,485,4063,471,-453,-111
25488,488,426,4086,475,-433,-143
25498,637,616,4028,439,-375,-150
25508,520,888,3915,382,-318,-88
25518,603,590,3977,258,-225,-51
25528,644,526,4047,86,-91,45
25538,603,425,4025,24,-22,73
25548,627,434,4130,11,43,74
25558,657,562,4196,-71,118,64
25568,483,519,4185,-128,172,138
25578,341,313,4130,-130,179,228
25589,352,548,4164,-155,198,179
25599,75,246,4101,-172,173,134
25609,70,222,4099,-53,91,2
25619,181,249,4105,-24,18,-82
25629,263,519,4101,50,-47,-175
25639,447,668,4108,69,-78,-168
25649,547,724,4097,53,-63,-135
25659,522,601,4081,13,1,-123
25669,541,664,4055,-41,41,-134
25679,311,391,4039,-85,43,-57
25689,285,125,4029,-67,38,40
25699,225,220,4009,-51,30,11
25709,294,187,4049,-15,1,-30
25719,300,279,4072,-8,2,-45
25729,362,328,4070,-20,2,-31
25739,322,326,4059,-20,-3,-36
25749,346,392,4017,6,-14,-39
25759,311,339,4042,17,-31,-115
25769,349,322,4055,0,-27,-93
25779,365,555,4025,2,-24,-105
25789,415,452,4068,-32,-8,-95
25799,362,307,4060,-48,17,-36
25809,284,309,4047,-45,15,-45
25819,305,263,4060,-30,-4,-34
25829,318,298,4058,-5,-14,-37
25840,362,352,4076,26,-28,-22
25850,373,489,4079,12,-21,-2
25860,296,519,4038,5,-16,11
25870,310,316,4040,9,-26,-9
25880,287,290,4045,-2,-21,-11
25890,316,336,4076,12,-31,-23
25900,390,403,4083,11,-30,-32
25910,398,438,4065,1,-17,-43
25920,435,482,4066,17,-16,-57
25930,419,511,4064,-7,-6,-78
25940,372,300,4030,-30,6,-24
25950,365,337,4038,-23,8,-26
25960,376,335,4051,-11,2,-30
25970,424,437,4055,-13,-8,-25
25980,372,479,4049,-7,0,-49
25990,375,317,4033,-27,7,-22
26000,357,330,4068,-17,1,0
26010,298,325,4018,-11,4,17
26020,316,220,4060,14,-14,-7
26030,333,358,4051,17,-18,-19
26040,402,467,4064,10,-28,-37
26050,401,464,4058,-9,-19,-33
26060,397,432,4062,3,-17,-23
26070,420,494,4064,-21,-2,-18
26080,360,406,4059,-41,19,8
26091,298,238,4030,-69,41,102
26101,230,299,4022,-15,11,3
26111,299,320,4067,15,-24,-47
26121,409,444,4113,14,-36,-49
26131,482,496,4111,-24,-13,-7
26141,403,435,4093,-67,25,89
26151,224,332,3978,-52,39,77
26161,244,194,3992,14,-15,-30
26171,305,309,4057,-11,-25,-91
26181,433,429,4103,-37,-27,-80
26191,497,519,4103,-57,1,7
26201,464,562,4046,-82,42,76
26211,371,359,4007,-52,31,49
26221,309,249,4028,-5,42,4
26231,316,201,4062,8,18,34
26241,305,429,4078,21,7,48
26251,266,426,4074,22,-4,31
26261,275,203,4058,-8,15,26
26271,250,257,4031,-9,1,-23
26281,315,411,4039,30,-32,-93
26292,405,417,4090,4,-27,-66
26302,407,495,4063,-22,-10,-36
26312,420,414,4039,-43,10,-13
26322,377,379,4056,-59,25,29
26332,363,298,4066,-57,24,13
26342,347,379,4062,-45,25,18
26352,333,387,4043,-34,18,22
26362,311,351,4032,4,-3,-3
26372,322,328,4074,15,-14,-23
26382,330,354,4084,22,-25,-42
26392,328,329,4088,17,-23,-22
26402,324,370,4068,6,-21,-24
26412,328,478,4040,11,-33,-50
26422,358,389,4045,3,-24,-34
26432,369,369,4067,-12,-12,-19
26442,359,342,4056,-37,-4,12
26452,344,351,4047,-43,11,44
26462,369,406,4035,-32,6,35
26472,368,424,4065,-11,-2,22
26482,319,346,4063,8,-10,14
26493,325,323,4065,6,-8,13
26503,342,395,4090,7,-19,-9
26513,317,472,4066,-6,-11,-22
26523,298,361,4047,-18,-9,-18
26533,290,302,4052,0,-23,-25
26543,359,365,4076,-3,-21,-30
26553,399,391,4070,-36,-11,10
26563,290,362,4013,-23,-2,30
26573,288,238,4013,21,-16,-8
26583,317,294,4058,64,-56,-59
26593,419,442,4098,52,-55,-51
26603,468,535,4126,13,-37,-22
26613,398,512,4089,-31,-9,37
26623,322,237,4019,-62,21,67
26633,289,269,4034,-51,17,43
26643,345,339,4047,-33,0,30
26653,403,455,4052,-13,-17,11
26663,383,444,4042,-10,-8,8
26673,349,375,4030,0,-9,11
26683,349,323,4069,0,-6,-13
26694,348,295,4063,12,-16,-20
26704,357,332,4068,15,-23,-25
26714,378,454,4071,15,-27,-22
26724,407,427,4086,3,-27,-11
26734,413,393,4071,-6,-17,13
26744,407,342,4059,-27,-1,36
26754,360,375,4019,-20,-3,38
26764,338,301,4026,-34,15,56
26774,360,397,4039,-40,23,30
26784,346,388,4061,-22,4,-13
26794,318,363,3973,-8,-15,-10
26804,336,292,4008,-3,-8,-32
26814,345,286,4045,-14,6,-37
26824,373,367,4082,-10,-5,-29
26834,383,429,4080,-16,-12,-17
26844,416,447,4094,-38,2,8
26854,371,432,4041,-49,2,22
26864,316,363,4064,-23,-1,0
26874,302,234,4071,-6,-4,-6
26884,326,375,4079,47,-37,-59
26895,360,404,4062,53,-46,-89
26905,359,391,4036,50,-41,-95
26915,354,411,4016,42,-35,-110
26925,391,376,4042,42,-41,-121
26935,405,393,4061,27,-25,-91
26945,429,435,4073,14,-20,-84
26955,405,447,4074,-28,-14,-60
26965,366,368,4076,-20,15,-35
26975,375,397,4069,-25,18,-34
26985,350,405,4093,-34,20,-2
26995,312,365,4029,-28,12,17
27005,338,376,4029,8,-11,-11
27015,344,304,4055,0,-9,-15
