t_ms,ax,ay,az,gx,gy,gz
0,1467,-1594,4549,-245,-269,-1040
10,1606,-1672,4631,-288,-337,-1087
20,1937,-1761,4721,-334,-342,-1140
30,2158,-1889,4580,-379,-311,-1125
40,2157,-1887,4357,-352,-237,-1080
50,2088,-1805,4116,-328,-146,-1033
60,1925,-1663,3910,-265,-56,-962
70,1824,-1651,3737,-168,27,-889
80,1735,-1660,3459,0,110,-848
90,1679,-1547,3402,191,185,-827
100,1588,-1261,3368,296,244,-800
110,1455,-958,3267,327,289,-757
120,1340,-757,3164,314,293,-745
130,1305,-635,3075,272,287,-752
140,1294,-573,3007,247,278,-767
150,1338,-690,3040,250,261,-780
160,1386,-749,2975,296,255,-795
170,1470,-595,3012,300,249,-835
180,1518,-531,3145,208,241,-852
190,1511,-586,3205,88,210,-861
200,1605,-710,3239,24,184,-894
210,1741,-769,3269,-35,174,-917
220,1762,-812,3360,-74,179,-934
230,1795,-890,3442,-134,182,-953
240,1861,-977,3490,-186,194,-960
250,1900,-1032,3545,-194,242,-956
260,1877,-949,3579,-222,274,-938
270,1847,-975,3526,-247,304,-924
280,1788,-922,3493,-302,330,-894
290,1672,-858,3401,-341,333,-854
300,1612,-910,3278,-327,341,-821
310,1608,-904,3202,-304,357,-770
320,1558,-876,3105,-278,366,-710
330,1474,-824,3095,-249,381,-660
340,1374,-703,3130,-255,380,-601
350,1289,-652,3123,-223,338,-574
360,1307,-678,3110,-140,311,-556
370,1343,-629,3232,-67,287,-512
380,1308,-463,3374,-70,266,-484
390,1270,-338,3488,-127,227,-476
400,1259,-381,3505,-202,187,-487
410,1290,-412,3458,-247,152,-474
420,1371,-419,3483,-249,134,-500
430,1403,-405,3600,-281,122,-504
440,1443,-474,3696,-286,102,-511
450,1509,-588,3720,-270,114,-528
460,1588,-573,3744,-256,144,-521
470,1642,-556,3871,-248,194,-495
480,1616,-545,3912,-307,234,-472
490,1570,-631,3941,-364,260,-461
500,1546,-569,3861,-390,301,-452
510,1526,-461,3795,-440,349,-447
520,1463,-499,3721,-489,386,-448
530,1423,-435,3695,-513,433,-453
540,1415,-201,3634,-502,464,-470
550,1355,-116,3592,-535,476,-490
560,1275,-162,3530,-601,493,-508
570,1245,-168,3562,-680,503,-562
580,1283,-25,3617,-851,513,-627
590,1279,162,3596,-1078,499,-687
600,1219,86,3504,-1272,478,-766
610,1262,-240,3423,-1406,454,-852
620,1419,-88,3265,-1636,461,-869
630,1421,510,3349,-1878,514,-943
640,1439,698,3569,-2459,520,-1010
650,1489,156,3513,-3114,473,-1007
660,1621,-319,3075,-3503,454,-1025
670,1853,-740,3022,-3571,453,-1127
680,2022,-930,3115,-3669,419,-1180
690,2220,-1153,3684,-3891,391,-1170
700,2009,-1218,3944,-4253,330,-1120
710,2022,-1834,4159,-4499,172,-1096
720,2207,-2733,4254,-4734,14,-914
730,2486,-3055,3920,-4868,-48,-826
740,2554,-2920,3202,-5038,19,-741
750,2437,-3712,2773,-5100,83,-567
760,2378,-4775,2544,-5024,121,-373
770,2217,-5188,2163,-4735,254,-208
780,1905,-5612,1988,-4131,342,-81
790,1625,-5670,2074,-3430,347,70
800,1361,-5496,2506,-2526,324,145
810,1117,-4955,2397,-1942,256,229
820,885,-4456,2006,-1716,294,285
830,628,-4172,1811,-1886,323,235
840,307,-3864,1365,-1847,410,188
850,20,-3582,1009,-1692,445,115
860,-129,-3352,601,-1539,427,143
870,-260,-3312,391,-1182,360,104
880,-56,-3909,595,-842,278,282
890,54,-4423,1377,-285,253,439
900,279,-4068,2297,-64,274,475
910,375,-3473,2224,4,292,429
920,251,-4241,1485,284,225,605
930,89,-4801,635,638,146,864
940,232,-4899,1243,893,243,692
950,56,-3985,965,855,430,620
960,221,-3787,1643,470,477,767
970,256,-4422,1821,72,431,842
980,-267,-4005,1049,80,551,872
990,38,-4243,1847,-219,461,723
1000,-5,-4329,1141,-324,379,1029
1010,-138,-3837,1512,42,444,665
1020,-224,-4158,869,-466,284,901
1030,-179,-3277,989,-105,305,654
1040,-43,-2794,990,-351,216,577
1050,-127,-2936,789,-628,88,745
1060,107,-2652,954,-1030,52,624
1070,288,-2567,1124,-1347,-14,614
1080,356,-2727,1035,-1466,-93,642
1090,387,-3247,1025,-1315,-145,609
1100,412,-3534,1060,-1069,-169,532
1110,411,-3535,1095,-767,-181,441
1120,325,-3314,1205,-556,-201,365
1130,232,-3062,1111,-328,-239,260
1140,266,-3037,1108,-123,-278,189
1150,325,-2861,1079,-54,-283,115
1160,377,-2519,996,-33,-279,6
1170,474,-2418,1073,-74,-271,-55
1180,464,-2864,1361,-56,-265,-97
1190,428,-3200,1539,-65,-260,-183
1200,398,-3171,1400,33,-270,-299
1210,420,-3069,1271,140,-293,-366
1220,430,-3263,1232,327,-351,-414
1231,411,-3334,1129,449,-395,-467
1241,678,-3074,740,586,-289,-572
1251,1155,-3492,2396,754,-204,-627
1261,2200,-5346,5477,927,215,-875
1271,750,-4151,4828,1031,351,-105
1281,-1174,-1849,2731,1561,-111,-585
1291,-766,-2568,1403,1403,-402,-262
1301,13,-4203,874,1341,-411,-280
1311,720,-4820,1518,1530,-328,-458
1321,504,-3822,2062,1764,-257,-471
1331,220,-3010,2141,1607,-234,-504
1341,424,-3309,2136,1223,-263,-477
1351,763,-4236,1879,1258,-348,-523
1361,1203,-4690,2005,1664,-413,-566
1371,1564,-4026,2278,2068,-415,-507
1381,1373,-3523,2433,2191,-433,-526
1391,1097,-2978,2475,1734,-474,-610
1401,1159,-2847,2441,1210,-522,-731
1411,1335,-3311,2388,874,-560,-754
1421,1675,-3676,2481,722,-548,-806
1431,1800,-3563,2662,621,-524,-890
1441,1806,-3049,2737,439,-471,-974
1451,1766,-2670,2808,122,-410,-992
1461,1782,-2462,2828,-294,-354,-994
1471,2021,-2556,3397,-793,-255,-920
1482,2070,-2941,3113,-1129,-322,-876
1492,2258,-3640,2906,-882,-283,-812
1502,2357,-4062,2805,-645,-109,-840
1512,2240,-3965,1905,-526,-25,-893
1522,2071,-1885,923,-584,151,-1051
1532,1997,-2758,1743,-498,61,-736
1542,1837,-3720,1589,-681,42,-579
1552,2193,-3073,1469,-347,198,-915
1562,2240,-2570,2038,-159,348,-874
1572,1821,-2279,2115,-176,440,-860
1582,1501,-2093,1330,-334,453,-812
1592,1587,-2348,1322,-362,619,-667
1602,1831,-3133,2039,-326,576,-872
1612,1510,-4029,1219,126,603,-679
1622,1147,-2842,1569,409,609,-788
1632,1730,-2947,1584,421,658,-749
1642,1750,-3847,1383,289,626,-538
1652,2047,-3685,1430,332,656,-761
1662,2530,-2568,1426,360,703,-879
1672,2306,-2234,2017,301,736,-645
1682,2044,-2140,2436,178,774,-658
1692,2092,-1747,2542,100,859,-783
1702,2111,-1537,2339,-74,945,-784
1712,2046,-1614,2142,-260,1018,-825
1722,1952,-1715,1939,-525,1081,-836
1733,1894,-1771,1928,-926,1111,-855
1743,1834,-1949,1662,-1260,1089,-836
1753,1838,-2352,1772,-1475,1071,-735
1763,1865,-2496,2437,-1232,1084,-741
1773,2439,-3268,3231,-689,1229,-693
1783,2058,-1777,2209,-937,1264,-457
1793,1638,-1595,2543,-1265,1289,-428
1803,1325,-2328,2108,-1766,1131,-298
1813,1486,-2763,2197,-1737,1127,-370
1823,1748,-2497,2467,-1648,1216,-448
1833,1449,-2324,2581,-1571,1244,-387
1843,1095,-2744,2727,-1453,1165,-428
1853,1059,-3104,2811,-1276,1084,-461
1863,1141,-3011,2743,-1098,1043,-490
1873,1192,-2853,2586,-951,987,-523
1883,1232,-3108,2515,-799,926,-467
1893,1228,-3473,2466,-605,868,-377
1903,1252,-3600,2567,-447,860,-314
1913,1194,-3500,2311,-259,832,-226
1923,1163,-3518,2666,-68,769,-98
1933,1173,-3453,2912,-85,692,5
1943,1273,-3377,2898,-159,637,126
1953,1263,-3201,2782,-305,608,208
1963,1268,-3186,2572,-468,580,298
1973,1315,-3136,2396,-679,581,383
1984,1358,-3241,2304,-931,604,430
1994,1396,-3749,2419,-1068,631,459
2004,1637,-4534,2459,-980,653,517
2014,1783,-4637,2403,-722,710,517
2024,1799,-4349,2389,-528,725,496
2034,1578,-4456,2279,-455,639,596
2044,1386,-4815,2059,-312,508,682
2054,1479,-4985,1935,38,457,658
2064,1528,-4761,1944,258,448,616
2074,1409,-4597,1925,426,401,625
2084,1205,-4560,1952,491,344,633
2094,1146,-4536,1912,497,332,592
2104,1147,-4368,1840,434,321,567
2114,1148,-4109,1852,311,339,543
2124,1081,-3999,1878,147,328,573
2134,1028,-3831,1761,10,326,621
2144,976,-3601,1605,-84,316,640
2154,885,-3395,1379,-123,285,704
2164,721,-3242,1250,-150,253,778
2174,551,-3039,1183,-209,223,812
2185,379,-2814,1154,-233,174,804
2195,215,-2719,1174,-314,108,790
2205,90,-2847,1162,-377,35,790
2215,47,-3002,1126,-404,-34,744
2225,125,-3386,1173,-245,-92,685
2235,311,-3812,1316,24,-102,632
2245,464,-3779,1453,340,-43,516
2255,489,-3277,1523,564,29,362
2265,400,-2819,1653,595,62,256
2275,370,-2728,1689,402,65,220
2285,450,-2861,1661,213,88,180
2295,678,-2754,1726,35,151,92
2305,717,-2469,1697,-209,221,42
2315,675,-2341,1704,-576,265,-23
2325,658,-2418,1594,-955,286,-40
2335,697,-2691,1335,-1132,303,-60
2345,918,-3446,1341,-735,315,-65
2355,1113,-4089,1649,-256,355,-35
2365,1109,-3955,1962,190,429,-55
2375,1008,-3213,1976,344,528,-162
2386,901,-2486,1556,180,644,-250
2396,875,-2551,957,47,806,-327
2406,981,-3502,191,94,1101,-457
2416,1158,-4269,-441,483,1619,-662
2426,1006,-4318,-153,1303,2241,-972
2436,463,-3536,1666,2126,2706,-1368
2446,782,-1846,2599,2453,2211,-1262
2456,-301,-510,2145,1433,1727,-701
2466,261,-1618,1208,1787,1734,-1675
2476,1111,-4012,2044,2094,1972,-1338
2486,910,-2932,2655,2561,2253,-1523
2496,9,-715,3857,2682,2221,-2017
2506,-435,732,4395,1975,1952,-2273
2516,-542,-5,4376,1040,1473,-2366
2526,-98,-972,3812,384,1128,-2581
2536,105,-1432,3548,-75,710,-2789
2546,130,-1064,3253,-546,279,-2942
2556,77,-817,2974,-1075,-226,-2938
2566,105,-474,2320,-1626,-723,-2988
2576,218,56,1733,-2536,-1116,-3048
2587,826,348,840,-3611,-1420,-3076
2597,1587,190,285,-4636,-1646,-2863
2607,2343,-254,-210,-5279,-1680,-2633
2617,2742,-817,-572,-5729,-1609,-2526
2627,3114,-2059,-805,-6012,-1412,-2321
2637,3059,-4102,-795,-6015,-1287,-2037
2647,2874,-5441,-1157,-5917,-1245,-1878
2657,3027,-5591,-1641,-5014,-1090,-1855
2667,3687,-5888,-725,-3421,-695,-1729
2677,3239,-6243,15,-2474,-429,-1695
2687,2697,-6101,-31,-1638,-366,-1850
2697,2662,-6015,280,-748,-273,-1937
2707,2775,-5755,805,5,-152,-1936
2717,2767,-5013,980,691,-63,-1969
2727,2775,-4002,917,1241,-24,-2236
2737,2838,-3164,947,1431,2,-2433
2747,2792,-2765,760,1158,-15,-2447
2757,2923,-2691,449,724,-124,-2562
2767,3315,-2653,76,365,-167,-2726
2777,3622,-2700,-280,474,-135,-2972
2788,3913,-2856,-8,464,-81,-3193
2798,3832,-2772,-367,347,-20,-3326
2808,3656,-2616,-365,330,14,-3465
2818,3669,-2452,-91,-18,9,-3610
2828,3971,-2054,187,-603,16,-3697
2838,4428,-1852,460,-1090,11,-3721
2848,4957,-1968,452,-1449,18,-3660
2858,5390,-1962,323,-1467,80,-3450
2868,5512,-1562,346,-1381,250,-2987
2878,5156,-1334,400,-1337,440,-2408
2888,4905,-1978,421,-1597,517,-1910
2898,5396,-4199,1257,-2095,647,-1598
2908,6352,-7836,3082,-2529,1219,-1529
2918,6061,-7669,713,-2704,1105,-2115
2928,3989,-4867,-2109,198,1243,-2444
2938,3075,-1930,443,1498,1374,-2042
2948,2450,1434,1361,477,1240,-1790
2958,2488,3312,-13,-482,1128,-2025
2968,3083,1964,-1885,-718,1244,-2090
2978,4018,-978,-2155,139,1612,-1883
2989,4895,-2608,-2838,2076,2162,-1688
2999,5808,-3207,1345,2388,3009,-1214
3009,5037,-2267,485,3576,3520,-1485
3019,4868,-2131,3338,4963,3987,-1767
3029,3489,-131,4860,5283,4236,-2095
3039,1882,2144,5833,3444,3443,-2277
3049,1953,2384,5368,441,2470,-2370
3059,2823,-388,1975,-2169,1771,-2300
3069,1361,-561,-1595,-2334,1765,-3028
3079,3825,-1533,2953,-23,1989,-3096
3089,3727,4367,6188,1159,1350,-2577
3099,1914,2432,4109,-2253,401,-2075
3109,2920,-3218,1909,-2703,-146,-2347
3119,1488,-914,1578,-1484,-122,-3177
3129,2616,3218,-1012,-1461,-767,-2125
3139,3539,3654,-224,-2884,-1199,-2447
3149,4101,2968,838,-4147,-1585,-2212
3159,3428,1424,-303,-4902,-2158,-1957
3169,4135,-1339,947,-4358,-2253,-1283
3179,4425,-2211,-782,-3440,-1869,-1097
3190,3696,-3041,-319,-159,-1458,-743
3200,2188,-2522,-2444,2542,-2015,-405
3210,5720,-2835,-1960,4695,-747,557
3220,5482,-3045,121,4913,23,904
3230,4887,-1505,2837,4006,661,542
3240,3593,1315,4755,1722,400,-306
3250,2733,3329,5758,-1272,-150,-730
3260,2641,1677,3144,-2664,-561,-623
3270,3191,-2314,-454,-2213,-593,305
3280,4648,-3011,-1158,-929,-79,52
3290,3837,-1747,739,-399,195,-503
3300,2200,726,1848,-78,196,-660
3310,2012,1417,2661,229,156,-460
3320,2473,1511,2768,39,-54,-243
3330,2609,492,2581,-201,-303,-94
3340,2644,-923,1957,-262,-455,30
3350,3111,-1635,2024,-82,-558,173
3360,3379,-1902,2154,206,-662,385
3370,3763,-2080,2175,611,-724,657
3380,3997,-2394,2430,1149,-760,931
3391,4090,-2378,2798,1491,-690,1144
3401,4329,-1981,2807,1654,-541,1288
3411,4512,-2204,2505,1799,-365,1436
3421,4403,-2232,2542,1843,-156,1550
3431,4317,-1588,2699,1935,22,1578
3441,4213,-958,2933,1842,79,1714
3451,4184,-854,2821,1654,53,1878
3461,4281,-962,2516,1590,24,2003
3471,4397,-1161,2175,1747,26,2086
3481,4568,-1118,1984,2004,44,2182
3491,4704,-816,1772,2172,42,2239
3501,4862,-961,1354,2479,45,2295
3511,5015,-1368,1495,2864,73,2400
3521,5077,-874,1846,3121,196,2418
3531,5044,-519,2241,3069,226,2389
3541,5016,-478,2542,2761,270,2395
3551,5028,-593,2563,2624,284,2389
3561,4944,-792,2474,2503,329,2432
3571,4836,-891,2301,2419,358,2470
3581,4669,-1052,2102,2379,350,2519
3592,4567,-1108,1779,2308,361,2571
3602,4663,-1275,1229,2349,420,2586
3612,4706,-1620,915,2444,540,2683
3622,4540,-1497,1103,2610,644,2733
3632,4412,-1016,1283,2548,687,2710
3642,4435,-796,1504,2427,702,2721
3652,4221,-912,1690,2330,683,2660
3662,4125,-696,1694,2171,679,2573
3672,4076,-683,1712,2032,647,2498
3682,4015,-752,1575,1901,608,2430
3692,3842,-1030,1417,1909,555,2356
3702,3718,-1210,1167,1905,527,2294
3712,3530,-1291,1026,1893,485,2211
3722,3228,-1280,1098,1880,446,2119
3732,3780,-5,448,1603,558,1976
3742,4242,-1,553,1754,315,1166
3752,2601,1365,1341,789,303,853
3762,3384,1758,881,512,251,665
3772,3587,13,1038,654,35,528
3782,3272,-1150,854,693,34,492
3793,3491,-701,1033,672,62,241
3803,3148,-32,1450,526,129,69
3813,3090,-94,1725,399,106,21
3823,2892,-1266,1707,485,-70,33
3833,2666,-1892,1442,732,-163,65
3843,2715,-1485,1177,911,-327,-45
3853,2664,-1418,1244,824,-412,-122
3863,2879,-1558,1183,735,-476,-231
3873,2663,-1664,1391,670,-516,-235
3883,2993,-1326,1434,621,-519,-255
3893,2922,-828,1466,602,-656,-362
3903,2889,-860,1130,512,-886,-384
3913,4765,-1129,1116,-13,-1519,-1048
3923,1045,-2236,2386,-227,-847,-320
3933,3393,-2013,2018,-305,-852,-538
3943,3158,-2566,2039,22,-885,-476
3953,2893,-2396,1965,169,-738,-305
3963,3237,-1708,1706,239,-660,-282
3973,3326,-1452,1566,4,-678,-348
3983,3473,-1580,1541,-194,-698,-424
3994,3619,-1575,1664,-395,-729,-566
4004,3721,-1666,1722,-493,-673,-671
4014,3814,-1802,2047,-443,-663,-739
4024,3900,-1785,2140,-466,-735,-777
4034,3650,-1969,2195,-343,-828,-875
4044,3917,-2104,2146,-400,-847,-818
4054,4084,-1897,1902,-342,-929,-906
4064,4179,-2037,1809,-219,-946,-977
4074,4227,-2126,1380,-189,-924,-980
4084,4636,-1627,1291,-282,-664,-1011
4094,4621,-1174,1398,-392,-675,-1185
4104,4518,-774,1758,-745,-593,-1193
4114,4551,-941,2075,-841,-643,-1195
4124,4501,-1358,1927,-1048,-731,-1058
4134,4861,-2212,2061,-809,-704,-969
4144,5191,-2480,1589,-297,-551,-905
4154,5035,-2169,1913,345,-375,-837
4164,4397,-1387,2329,355,-437,-846
4174,4142,-940,2363,107,-501,-730
4184,3953,-1211,2156,-220,-600,-415
4195,3845,-1656,1956,-327,-626,-186
4205,3780,-1574,1821,-291,-537,-87
4215,3612,-1035,1972,-229,-430,4
4225,3394,-730,2026,-144,-412,177
4235,3285,-689,1832,-78,-384,373
4245,3228,-835,1538,103,-236,532
4255,3166,-1015,1265,427,-38,655
4265,3162,-1071,1103,875,140,747
4275,3224,-791,1241,1210,342,844
4285,3238,-417,1336,1350,466,954
4295,3269,-243,1386,1277,530,1042
4305,3345,-194,1386,1075,586,1104
4315,3482,-226,1414,861,649,1127
4325,3602,-230,1423,621,716,1123
4335,3744,-270,1303,453,724,1095
4345,3947,-329,1258,303,762,1051
4355,4060,-330,1124,138,787,1013
4365,4080,-346,1040,41,750,1000
4375,4077,-502,1049,-69,713,995
4385,4004,-669,842,-122,639,976
4396,3989,-623,1032,-238,628,940
4406,3918,-647,882,-305,534,944
4416,3848,-1047,956,-316,434,1041
4426,3665,-1211,1060,-352,382,1091
4436,3697,-1306,1224,-260,352,1061
4446,3732,-1299,1306,-205,307,1062
4456,3763,-1176,1306,-179,257,1042
4466,3724,-1018,1226,-163,211,998
4476,3610,-814,1150,-138,165,952
4486,3497,-596,1075,-113,103,925
4496,3352,-485,1012,-48,17,893
4506,3308,-537,1021,52,-87,858
4516,3312,-569,1078,247,-148,820
4526,3250,-536,1091,513,-176,777
4536,3180,-466,1150,719,-156,720
4546,3117,-364,1112,837,-178,652
4556,3077,-474,1113,916,-227,573
4566,3051,-615,1080,960,-289,494
4576,3027,-535,1063,940,-351,412
4586,2998,-362,1109,852,-424,328
4597,2955,-290,1156,739,-539,294
4607,2933,-428,1151,674,-646,266
4617,3082,-648,1314,619,-687,236
4627,3336,-726,1289,637,-642,164
4637,3494,-891,1410,745,-579,93
4647,3431,-924,1559,850,-568,55
4657,3267,-855,1804,810,-563,34
4667,3179,-739,1925,590,-609,35
4677,3231,-921,2001,310,-678,30
4687,3334,-1308,1948,104,-676,47
4697,3376,-1742,1822,60,-652,69
4707,3343,-1908,1761,81,-597,81
4717,3306,-1824,1706,224,-518,65
4727,3272,-1637,1689,320,-482,70
4737,3239,-1450,1663,390,-472,91
4747,3207,-1483,1758,384,-496,126
4757,3184,-1506,1832,326,-505,133
4767,3175,-1486,1923,205,-510,107
4777,3157,-1436,1971,5,-550,68
4787,3220,-1472,1870,-200,-585,32
4798,3379,-1730,1718,-319,-637,3
4808,3584,-1947,1638,-323,-662,-1
4818,3794,-1902,1603,-284,-612,12
4828,4014,-1826,1483,-211,-593,26
4838,4171,-1946,1405,-98,-589,73
4848,4246,-2082,1370,56,-604,118
4858,4230,-2044,1280,181,-629,142
4868,4234,-1756,1338,229,-676,150
4878,4250,-1413,1379,148,-752,172
4888,4247,-1276,1337,-45,-867,162
4898,4388,-1327,1171,-244,-1011,139
4908,4655,-1393,1062,-336,-1124,149
4918,4817,-1488,830,-314,-1204,116
4928,4985,-1601,695,-253,-1275,44
4938,5108,-1679,511,-59,-1336,12
4948,5131,-1977,523,307,-1426,-38
4958,5136,-2206,540,667,-1451,-98
4968,5099,-2073,665,1011,-1374,-157
4978,4833,-1678,671,1281,-1312,-210
4988,4493,-1376,759,1408,-1284,-249
4999,4267,-1166,693,1355,-1277,-236
5009,4078,-1191,603,1240,-1243,-212
5019,3959,-1202,489,1090,-1184,-167
5029,3847,-1254,356,1083,-1091,-110
5039,3731,-1238,440,1076,-1002,-51
5049,3695,-1136,723,1075,-875,-17
5059,3651,-1261,743,1185,-775,5
5069,3617,-1349,738,1161,-718,90
5079,3637,-1255,618,1199,-703,172
5089,3648,-1221,474,1217,-648,252
5099,3679,-1405,353,1245,-588,292
5109,3856,-1697,136,1249,-502,313
5119,4045,-1898,-114,1429,-356,308
5129,4092,-2078,4,1697,-198,300
5139,4009,-1891,263,1761,-75,334
5149,3822,-1540,287,1755,-11,299
5159,3799,-1465,430,1731,-55,251
5169,3991,-1502,404,1708,-80,268
5179,4203,-1330,582,1662,-40,381
5189,3963,-1205,472,1763,-56,442
5199,3735,-1506,609,1972,-79,369
5209,3675,-1928,433,2108,-113,337
5219,3858,-3056,687,2375,-236,366
5229,3312,-3112,1140,1642,-310,379
5239,2891,-1567,1401,949,-485,-138
5250,2681,806,453,245,-756,-574
5260,3168,1914,-800,103,-785,-892
5270,3534,127,-648,55,-662,-672
5280,3563,-1521,-128,-208,-470,-544
5290,3850,-1513,184,-41,-255,-878
5300,4149,-775,265,518,-26,-1241
5310,4520,-1138,244,1324,18,-1059
5320,4149,-1512,-76,1643,59,-831
5330,4239,-768,139,1598,299,-964
5340,4303,165,737,1135,446,-826
5350,4206,99,852,724,447,-558
5360,4084,-831,780,550,389,-258
5370,4170,-864,-1123,804,545,-142
5380,5019,-1759,-572,1185,886,321
5390,4520,-2249,-1145,1577,1193,280
5400,4556,-3485,-40,2396,1424,97
5410,4225,-2467,1723,2561,1747,-23
5420,3703,-1017,3323,2310,1785,-315
5430,3492,-1154,3808,1364,1464,-332
5440,3435,-2337,3252,566,1099,-304
5450,3580,-3107,2003,148,851,-339
5460,3503,-4182,1531,491,458,-291
5470,2907,-5151,1621,236,99,-281
5480,2218,-2223,-301,217,293,-626
5490,4391,-348,1294,3209,74,-865
5501,5141,1373,3218,3069,-288,-363
5511,2097,592,4775,295,-569,21
5521,2026,-1311,1333,-344,-1590,-717
5531,4320,-3592,-429,-25,-1853,-713
5541,3761,-1713,-2659,648,-1969,-1134
5551,4700,-727,-1715,2561,-2201,-780
5561,4831,-443,-750,2393,-2618,-51
5571,4662,-53,-155,1747,-2670,-10
5581,4582,241,115,829,-2553,98
5591,4534,-52,-1387,376,-2471,345
5601,5212,-1595,339,280,-2007,1221
5611,4676,-2971,-1858,511,-1512,1619
5621,4324,-3836,-1735,2296,-1000,1300
5631,4118,-3730,-2552,4199,-307,821
5641,3854,-2841,-751,4279,51,1108
5651,4575,-924,1427,3080,472,982
5661,5422,-136,2465,2133,770,108
5671,5420,662,3106,718,1258,-376
5681,4176,1166,1016,531,784,-17
5691,2821,501,-160,912,119,512
5701,2491,-681,-827,1323,-358,534
5711,2966,-1244,-1185,1411,-475,421
5721,3292,-477,-1137,1495,-412,332
5731,3848,367,-137,1774,-255,270
5741,4374,285,882,1459,-87,384
5752,4827,47,1057,1173,98,425
5762,5299,56,1121,947,472,483
5772,5324,211,950,835,870,685
5782,5044,453,985,555,1154,876
5792,4694,577,263,223,1348,910
5802,4577,205,-193,93,1471,998
5812,4476,-271,-380,121,1689,1062
5822,4298,-482,-2205,638,1860,911
5832,4481,-1411,-1617,1825,2039,1056
5842,4549,-1663,-777,2151,2370,1296
5852,3959,-1104,480,3267,2523,1142
5862,3632,-376,1746,3808,2303,942
5872,3889,305,2380,3138,2122,1057
5882,3077,-195,3192,2219,2021,1016
5892,1879,-136,4018,717,1585,562
5902,2050,277,3754,-637,1399,285
5912,2007,479,3698,-2093,1264,156
5922,1338,-332,2566,-2592,943,3
5932,1972,-532,1807,-2582,1069,-217
5942,3154,982,2075,-1000,1112,-509
5952,2802,1915,2639,224,891,-4
5962,2163,841,3448,-213,710,262
5972,2031,326,3308,-903,356,44
5982,1278,-180,1256,-1424,-352,-640
5992,2800,-186,-887,-24,-1006,-158
6003,3642,313,579,201,-1282,428
6013,2857,1697,936,-767,-1437,260
6023,3914,2500,1028,-1398,-1214,162
6033,2935,765,1754,-1027,-1645,570
6043,2512,-582,2202,-1607,-1898,687
6053,2657,-115,1489,-1359,-2013,572
6063,3223,-319,1602,-955,-1773,508
6073,3176,-698,943,-924,-1688,323
6083,2877,-1166,435,-795,-1378,-64
6093,3489,-1464,-283,74,-1569,22
6103,3586,-2087,319,498,-1559,463
6113,3678,-2060,216,560,-1684,404
6123,3755,-1891,-261,594,-1664,101
6133,4254,-1391,-176,469,-1243,-309
6143,4543,-1114,467,439,-793,-493
6154,4263,-2411,-410,478,-914,-374
6164,3206,-2756,-1023,151,-500,-323
6174,4259,-693,-676,1143,-719,-507
6184,4693,-1124,141,1688,-396,-551
6194,4367,-1177,-347,887,-72,-473
6204,4855,-54,-131,1487,95,-741
6214,5251,-988,1137,1233,246,-412
6224,4916,-560,1456,174,500,-252
6234,4929,-243,1550,-127,447,-387
6244,4949,-822,1721,-572,165,-413
6254,4761,-1397,1552,-1040,-79,-449
6264,4569,-1977,1205,-1063,-291,-594
6274,4470,-2280,826,-825,-543,-729
6284,4445,-2024,206,-518,-861,-764
6295,4591,-1814,-60,-24,-1065,-856
6305,4737,-1804,-121,375,-1161,-961
6315,4754,-1775,10,658,-1245,-965
6325,4603,-1625,305,779,-1304,-998
6335,4431,-1311,535,735,-1304,-1109
6345,4237,-927,632,732,-1347,-1114
6355,4049,-735,650,708,-1369,-1000
6365,3926,-890,736,742,-1373,-852
6375,3885,-1074,806,719,-1363,-744
6385,3911,-949,823,708,-1341,-681
6395,3964,-842,962,659,-1318,-629
6405,4077,-833,1005,501,-1293,-578
6415,4151,-994,1017,393,-1271,-513
6425,4243,-1181,1116,278,-1244,-472
6436,4345,-1160,1419,134,-1220,-434
6446,4382,-993,1837,-60,-1284,-344
6456,4377,-1151,2022,-137,-1411,-200
6466,4267,-1706,1630,-41,-1512,-47
6476,4239,-2111,1111,250,-1620,47
6486,3997,-1235,-641,1130,-1804,43
6496,4388,-2567,-2078,3562,-1625,161
6506,4411,-5061,1340,2258,-1677,1529
6516,4176,-5103,130,533,-1589,1526
6526,5250,-3545,-900,1353,-1007,455
6536,4636,-1982,-1154,2862,-432,418
6546,3623,-1068,127,2424,-500,903
6556,3850,-122,444,1314,-551,954
6566,3886,-378,478,974,-276,840
6576,3726,-1144,368,776,-177,828
6587,3751,-1443,120,841,-210,887
6597,3812,-1532,-200,1138,-89,842
6607,3790,-1512,-857,1679,43,671
6617,3783,-1362,-1652,2130,176,515
6627,3771,-1540,-2195,2696,510,247
6637,3592,-1900,-2718,3351,958,-42
6647,3436,-1839,-2819,4210,1381,-251
6657,3219,-1629,-3426,5169,1606,-476
6667,3098,-1734,-4288,6310,1763,-674
6677,3215,-1646,-3973,7416,1919,-932
6687,3493,-784,-3494,8181,2002,-1429
6697,4176,862,-1974,8382,2185,-1588
6707,4420,2655,-312,7294,2585,-1231
6717,3850,3606,1879,5230,2742,-1084
6728,3237,3860,4032,2171,2164,-1058
6738,2831,3074,3662,-519,1209,-862
6748,3047,702,3058,-2235,786,-667
6758,3175,-1490,1762,-3178,614,-730
6768,3766,-2255,748,-2723,430,-885
6778,4419,-1592,297,-1910,482,-1091
6788,4632,-238,-167,-1349,298,-1049
6798,4468,936,14,-1666,-34,-506
6808,4305,821,276,-2264,-521,-193
6818,4629,-541,-1001,-2711,-1021,-95
6828,5115,-1134,-671,-2135,-788,-56
6838,4969,-963,-548,-1322,-723,-286
6848,5011,-31,-439,-613,-898,-216
6858,5085,229,-405,-405,-1269,141
6869,5605,-181,124,-933,-1605,582
6879,5866,150,-558,-1594,-1481,760
6889,6306,-9,-1082,-1056,-779,780
6899,5455,-1989,-1741,-209,-545,756
6909,4613,-2682,-2276,-426,-26,995
6919,5535,-2089,-1105,461,-142,1303
6929,6185,-2502,633,282,705,958
6939,5585,-1955,-162,-15,1301,419
6949,5416,-2082,996,791,1655,357
6959,4662,-2053,2357,303,1964,562
6969,3557,-951,1909,533,1856,405
6979,2817,-198,1826,995,1570,121
6989,2573,732,761,1149,1116,271
6999,2502,763,932,911,926,538
7010,2667,504,1053,166,808,663
7020,2966,252,976,-505,616,689
7030,3227,112,934,-899,461,571
7040,3486,115,679,-1175,390,421
7050,3711,136,673,-1169,342,375
7060,3774,78,727,-1086,318,385
7070,3833,249,643,-912,318,363
7080,3796,460,742,-690,346,356
7090,3546,555,871,-612,307,382
7100,3286,471,820,-658,182,297
7110,3232,300,508,-674,19,215
7120,3127,53,615,-602,-75,226
7130,3120,49,567,-675,-157,167
7140,2987,395,359,-632,-206,-5
7150,3160,-273,610,-243,-417,-112
7160,3153,-79,248,-475,-623,-99
7170,3249,120,803,-422,-640,-35
7180,2681,-516,1554,-1548,-577,246
7190,2658,-1541,1128,-2487,-654,46
7200,2846,-2462,841,-2599,-600,-114
7210,2986,-2125,548,-2299,-463,-307
7220,3217,-1200,211,-1573,-323,-427
7230,3040,-333,474,-1096,-131,-281
7240,2548,-378,497,-899,-131,-38
7250,2677,-1545,100,-552,-275,272
7261,2942,-2394,256,-203,-181,546
7271,2961,-1927,494,57,90,380
7281,2754,-1103,841,201,219,318
7291,2592,-850,1319,-63,167,484
7301,2613,-1161,1668,-404,89,613
7311,2754,-1765,1696,-552,89,658
7321,2719,-2098,1324,-467,17,691
7331,2555,-1958,1254,-413,-125,715
7341,2407,-1686,1079,-505,-259,688
7351,2217,-1504,796,-610,-368,607
7361,2226,-1592,749,-715,-467,551
7371,2307,-1541,470,-826,-562,567
7381,2459,-1885,650,-748,-607,596
7391,2413,-2214,545,-803,-635,597
7401,2499,-2326,344,-588,-658,514
7411,2672,-2325,361,-315,-602,434
7421,2704,-2140,536,-157,-526,387
7431,2644,-1907,644,-177,-503,370
7441,2589,-1833,691,-278,-501,358
7451,2573,-1782,631,-460,-499,343
7461,2597,-1811,553,-559,-479,337
7471,2661,-2014,579,-608,-453,358
7481,2773,-2155,475,-613,-453,360
7491,2950,-2223,361,-521,-435,349
7501,3041,-2262,403,-402,-395,329
7512,3124,-2214,228,-271,-407,255
7522,3357,-2251,317,-189,-424,191
7532,3492,-2244,368,-252,-393,155
7542,3487,-2216,165,-287,-356,125
7552,3532,-2043,-76,-371,-340,144
7562,3603,-1624,-413,-511,-257,196
7572,3627,-1561,-570,-560,-181,253
7582,3643,-1740,-515,-640,-118,283
7592,3667,-1861,-496,-704,-75,288
7602,3675,-1876,-610,-611,-78,273
7612,3703,-1852,-466,-453,-90,241
7622,3770,-1655,-410,-304,-120,176
7632,3892,-1285,-539,-134,-190,140
7642,3977,-961,-558,40,-280,167
7652,4170,-598,-672,-20,-295,132
7662,4502,-617,-699,28,-274,140
7672,4881,-1070,-428,-78,-210,175
7682,5263,-1358,-449,-210,-109,172
7692,5461,-1355,-426,-285,13,149
7702,5444,-1070,-387,-398,115,126
7712,5295,-844,-441,-494,144,134
7722,5310,-838,-533,-587,125,157
7732,5455,-819,-573,-603,105,160
7742,5488,-760,-573,-488,114,194
7752,5138,-574,-676,-268,104,207
7763,4917,-391,-574,-62,58,192
7773,4615,-159,-721,-43,24,235
7783,4493,-4,-467,-105,-8,235
7793,4465,255,-445,-197,-34,211
7803,4660,146,-419,-142,-65,188
7813,4934,34,-418,-371,-58,188
7823,4998,166,-414,-223,-29,161
7833,4924,210,-175,109,-42,159
7843,4977,386,-156,314,-100,209
7853,5295,594,-283,490,-186,86
7863,5797,799,-515,613,-216,-80
7873,5886,1081,-570,747,-221,-238
7883,6055,1792,-336,691,-227,-388
7893,6155,2508,54,711,-233,-535
7903,6469,3117,234,562,-285,-705
7913,7003,4285,199,359,-271,-900
7923,7378,5968,-41,151,-180,-1142
7933,7935,7181,-518,-33,-71,-1334
7943,8374,8453,-1324,-405,169,-1558
7953,8696,8353,-2031,-241,484,-1718
7963,8543,6951,-2571,276,823,-1524
7973,7720,8839,-2432,670,906,-1741
7983,9137,6895,-790,1407,718,-1509
7993,10772,2825,-3136,-200,377,-571
8003,12699,711,-3514,1402,503,-817
8014,11593,1631,-2335,4187,437,-403
8024,11315,1040,-5,4600,334,220
8034,9793,596,1329,4843,-145,275
8044,6602,1279,3720,5005,-722,-154
8054,5891,853,3390,3771,-967,-624
8064,5175,-1866,3325,1944,-1176,-1240
8074,3718,-4164,3636,599,-1479,-1739
8084,3245,-5590,3713,-281,-1307,-1909
8094,3821,-6960,3356,-495,-1035,-1813
8104,3621,-7408,2810,-323,-1053,-1713
8114,3100,-7662,2743,-43,-1014,-1515
8124,2680,-7091,2982,141,-882,-1320
8134,2543,-6856,2825,-3,-770,-1121
8144,2354,-6697,2545,21,-595,-987
8154,2276,-5470,2423,15,-323,-905
8164,2008,-4554,2347,-126,-106,-857
8174,1823,-3900,2051,-280,77,-860
8184,1631,-3316,1740,-420,175,-877
8194,1709,-2947,1406,-605,179,-923
8204,1943,-2715,965,-770,168,-950
8214,2330,-2560,713,-895,157,-931
8224,2618,-2484,417,-1093,122,-893
8234,2895,-2121,167,-1243,91,-826
8244,3192,-2469,-351,-1069,6,-648
8254,3135,-2920,-271,-419,15,-475
8265,3156,-2332,-76,157,89,-304
8275,3390,-1854,-90,328,78,-180
8285,3612,-1793,-161,279,39,-135
8295,3798,-1642,-43,229,7,-149
8305,3791,-1441,72,161,-34,-169
8315,3785,-1288,266,67,-46,-188
8325,3823,-1146,395,-60,-27,-181
8335,4062,-812,-84,-199,-6,-132
8345,4237,-845,-50,11,67,-23
8355,4165,-1185,117,129,172,63
8365,4164,-1105,288,258,262,98
8375,4039,-996,351,272,280,73
8385,4023,-1337,355,262,291,-28
8395,3891,-1550,557,385,266,-112
8405,3688,-1617,868,692,221,-132
8415,3355,-1862,1203,972,142,-12
8425,3426,-2439,1657,1190,45,118
8435,3486,-384,-286,1357,-227,224
8445,4435,-74,2192,540,-425,214
8455,3705,772,2629,-1676,-464,982
8465,4666,-252,2261,-3339,-491,1461
8475,5750,-862,45,-3595,-511,2289
8485,5080,-2097,2422,-3890,-663,2926
8495,4709,-3049,2171,-3771,-701,3574
8505,5553,-4009,795,-3834,-145,4414
8516,7532,-144,-2909,-3321,277,3761
8526,7670,3221,-2444,-3365,527,3834
8536,7814,3775,-3198,-1068,538,3686
8546,4969,5471,-2272,-761,335,3790
8556,5069,6300,1703,337,399,3212
8566,5072,7079,1763,-54,249,2751
8576,5174,5320,1108,-934,-330,2333
8586,6107,1683,-681,-2038,-777,2038
8596,7257,-2474,-2683,-2300,-1053,2003
8606,6310,-6323,-5170,-1181,-1312,2305
8616,5854,-9097,-4100,437,-582,2838
8626,5755,-7903,-4991,2061,-39,2671
8636,6173,-5385,-388,1892,880,2677
8646,4118,-2313,16,1050,789,2119
8656,3899,-1877,1115,829,452,2431
8666,4325,-2486,1416,678,-72,2507
8676,3649,-4819,808,949,-729,2408
8686,3542,-5529,84,1934,-921,2262
8696,4283,-3911,-1022,3509,-784,2077
8706,4973,-2696,-933,5564,-268,2375
8716,4427,-1881,-782,6819,140,2520
8726,3666,-1840,-1102,7617,391,2564
8736,3524,-1640,-1633,7608,695,2614
8746,3341,1651,-600,5933,2085,2553
8756,2077,1379,181,1886,1267,1948
8767,1218,561,1817,-1893,970,1118
8777,1631,-1634,2805,-1727,1140,364
8787,1259,-2764,2743,-779,1447,934
8797,615,-1092,1309,562,1647,1088
8807,430,-703,1070,1091,1620,1230
8817,209,-236,478,720,1724,1289
8827,-246,-372,513,-146,1632,1136
8837,-249,-1124,780,-1142,1556,781
8847,-329,-2146,173,-1533,1369,517
8857,-75,-3543,197,-826,1266,508
8867,-427,-2371,295,-237,1115,651
8877,-533,-2333,303,53,893,724
8887,-20,-3457,98,-232,680,824
8897,-165,-4623,-78,-269,375,882
8907,493,-4950,462,-7,176,1071
8917,396,-5784,399,588,-181,1345
8927,1284,-7946,354,1517,-430,1779
8937,1697,-8562,367,2283,-552,2318
8947,1590,-8701,494,2817,-566,2846
8957,1110,-8693,918,2689,-679,3367
8967,1937,-7376,631,2691,-619,3764
8977,1376,-8533,1878,3441,-921,4321
8987,1448,-8039,1994,3715,-857,4525
8997,2046,-5227,1484,3550,-1180,4537
9007,2207,-5097,1642,3613,-1233,4540
9018,2442,-4278,2012,3495,-1323,4422
9028,2619,-3882,2717,3866,-1380,4381
9038,2901,-3162,3011,4436,-1474,4342
9048,2967,-1571,3186,4896,-1654,4335
9058,3439,-373,3009,5109,-1745,4206
9068,4001,717,2735,5089,-1891,3953
9078,4705,2018,2241,4732,-1981,3499
9088,5472,2924,1297,4603,-1932,3286
9098,6064,3346,677,4608,-2016,3055
9108,6694,4296,843,4525,-2125,2849
9118,6792,6213,969,4320,-2431,2642
9128,7655,6885,745,4681,-2730,2188
9138,8457,6880,639,4911,-2999,2279
9148,8591,6837,594,4756,-3396,2019
9158,8990,7686,558,4211,-3814,1358
9168,9726,8991,62,3650,-4067,377
9178,10815,10285,-382,3216,-4273,-747
9188,11588,12225,-964,2536,-4648,-2138
9198,11350,14010,-2720,2202,-5198,-3877
9208,11044,16006,-5301,1539,-5944,-5814
9218,12560,18298,-7816,701,-6451,-8219
9228,17068,18591,-8481,-842,-6777,-10868
9238,22513,15416,-6988,-2910,-7350,-12988
9248,28973,10785,-5544,-5849,-7453,-14863
9258,-32768,5437,-3615,-9310,-7053,-16172
9268,-32768,494,-1575,-13669,-6284,-17413
9278,-32768,-634,-3124,-18966,-4503,-19080
9288,-32768,-1309,-6244,-23227,-2450,-18778
9298,-32768,-2005,-11757,-26928,-92,-16971
9308,32672,-4342,-15195,-28151,2312,-14795
9318,19041,-4693,9221,-22566,2388,-14367
9328,427,8556,-32595,-14064,1835,-9577
9338,-32768,-32768,12269,-10910,7162,3259
9348,19310,-13860,9352,1706,9429,-11198
9359,3325,12476,8054,2009,9695,-5364
9369,8371,11934,9728,-3064,7587,-5380
9379,16977,-133,1873,-5842,5390,-2698
9389,12136,-2457,-50,-4237,4921,-2856
9399,13385,1925,349,-3458,5127,-2361
9409,13895,1190,-1087,-4019,4521,-1521
9419,11902,-2186,-1083,-3634,4197,-642
9429,10422,-3486,-1332,-2324,4212,-296
9439,9636,-2935,-1557,-1039,4126,-123
9449,8815,-2238,-1529,-421,3842,35
9459,8288,-2165,-2133,-167,3522,181
9469,7430,-2658,-2125,212,3174,345
9479,6275,-2811,-2233,563,2842,527
9489,5306,-2497,-2174,848,2603,721
9499,4688,-1931,-1842,818,2401,705
9509,4219,-1630,-1647,555,2125,574
9519,3683,-1720,-1515,189,1894,551
9529,3207,-1613,-1452,-212,1669,434
9539,2878,-1604,-1551,-583,1547,332
9549,2536,-1496,-1556,-968,1456,281
9559,2376,-1506,-1937,-1073,1307,319
9569,2024,-1599,-2376,-1046,1240,383
9579,1751,-1858,-2488,-783,1198,411
9589,1622,-1802,-2408,-604,1117,560
9599,1396,-1453,-2284,-591,1064,639
9609,1227,-1085,-1987,-838,916,612
9619,1080,-920,-2055,-1167,659,568
9629,1000,-1151,-2154,-1325,437,546
9639,917,-1549,-2297,-1343,236,540
9649,802,-1828,-2366,-1249,87,457
9659,817,-1798,-2105,-1102,-131,270
9669,597,-1142,-1625,-1542,-157,198
9679,452,-530,-1394,-1312,-425,33
9690,367,-474,-820,-1562,-694,49
9700,141,-291,-818,-2023,-900,-40
9710,-81,-230,-973,-2306,-1162,-229
9720,-88,-279,-1110,-2452,-1466,-423
9730,72,-387,-1177,-2628,-1590,-592
9740,355,-584,-1281,-2735,-1680,-758
9750,538,-751,-1374,-3020,-1747,-952
9760,797,-883,-1257,-3296,-1812,-1119
9770,1178,-672,-1113,-3766,-1817,-1235
9780,1303,-492,-1134,-4107,-1711,-1317
9790,1466,-950,-852,-4097,-1651,-1448
9800,1749,-1926,-394,-4084,-1582,-1677
9810,2156,-2862,133,-3900,-1458,-1948
9820,2544,-3589,725,-3489,-1268,-2169
9830,2662,-3929,1210,-3019,-1042,-2302
9840,2544,-3626,1306,-2663,-861,-2449
9850,2566,-2937,1678,-2461,-684,-2539
9860,2749,-2639,2235,-2523,-477,-2537
9870,3187,-2636,2151,-2946,-298,-2434
9880,3640,-3521,1534,-3035,23,-2428
9890,3571,-5310,1704,-2882,156,-2472
9900,2912,-6344,2370,-2822,222,-2563
9910,2276,-5607,2759,-2622,174,-2832
9920,2092,-4674,2483,-2296,-6,-3074
9930,2229,-4723,2055,-1915,-95,-3109
9940,2672,-4846,2226,-1604,-12,-2977
9950,2603,-4921,3044,-1432,160,-2921
9960,2465,-4470,3323,-1668,327,-2968
9970,2699,-4085,3372,-1793,529,-3059
9980,3159,-4281,3016,-1731,735,-3089
9990,3487,-4442,2822,-1606,959,-3126
10000,3513,-4310,2816,-1494,1134,-3196
10010,3434,-4033,2991,-1459,1262,-3245
10021,3585,-3959,3189,-1628,1402,-3247
10031,3719,-4263,3154,-1881,1539,-3190
10041,3859,-4339,3088,-2055,1724,-3119
10051,4129,-4160,2541,-2291,1835,-3084
10061,4394,-3888,1703,-2420,1931,-2983
10071,4574,-4155,1657,-2295,2058,-2919
10081,4694,-4594,1604,-2203,2124,-2865
10091,4579,-4858,1553,-1974,2099,-2824
10101,4524,-4620,1487,-1786,2074,-2842
10111,4485,-4535,1553,-1474,2077,-2865
10121,4399,-4363,1330,-1405,2113,-2829
10131,4574,-3884,1144,-1575,2198,-2863
10141,4669,-3551,808,-1833,2292,-2934
10151,4702,-3972,270,-1924,2344,-2852
10161,4911,-4077,-22,-2089,2407,-2764
10171,4811,-4210,-187,-2108,2442,-2708
10181,4590,-4482,-346,-2055,2424,-2602
10192,4474,-4635,-402,-1968,2405,-2492
10202,4359,-4506,-470,-1931,2415,-2404
10212,4124,-4146,-572,-1932,2371,-2281
10222,3902,-3938,-641,-1949,2270,-2147
10232,3764,-3900,-647,-2143,2160,-1967
10242,3623,-3811,-658,-2438,2025,-1824
10252,3330,-3897,-910,-2543,1897,-1671
10262,3043,-4046,-1000,-2516,1835,-1476
10272,2930,-3972,-1156,-2525,1765,-1361
10282,2966,-3810,-1108,-2648,1716,-1301
10292,2904,-3919,-1210,-2714,1625,-1232
10302,2802,-4206,-1336,-2662,1551,-1148
10312,2676,-4508,-1426,-2597,1543,-1038
10322,2525,-4616,-1679,-2561,1565,-977
10332,2487,-4637,-2047,-2450,1598,-963
10342,2553,-4621,-2446,-2180,1667,-895
10352,2572,-4710,-3012,-1498,1809,-772
10363,2644,-5466,-2672,-1086,1974,-512
10373,2794,-5776,-2329,-1678,2141,-376
10383,2664,-5011,-2677,-2814,2233,-378
10393,2442,-3843,-3435,-3561,2392,-674
10403,2295,-4190,-2969,-3454,2506,-739
10413,1915,-4737,-2670,-3336,2406,-556
10423,2316,-4436,-2831,-3271,2304,-487
10433,2914,-3444,-3337,-3309,2134,-483
10443,3240,-2991,-3597,-3373,1948,-629
10453,3766,-3201,-4310,-3688,1747,-645
10463,4234,-3819,-4722,-3549,1727,-634
10473,4340,-3983,-4689,-3529,1772,-680
10483,4291,-3489,-5174,-3349,1737,-781
10493,4490,-2901,-5175,-3162,1685,-919
10503,4596,-1648,-5424,-3130,1437,-1096
10513,4956,-794,-5933,-2939,1088,-1272
10524,5628,-860,-6199,-2637,695,-1391
10534,6785,-525,-7285,-2181,364,-1561
10544,8508,-1413,-7946,-1492,39,-1656
10554,9674,-1820,-8164,-772,-317,-1748
10564,10127,-693,-7417,117,-1012,-1852
10574,10534,980,-6873,737,-1986,-1912
10584,11117,1980,-6670,1030,-3134,-1751
10594,12217,2172,-6325,1063,-4369,-1448
10604,13338,1947,-6221,1174,-5593,-1196
10614,14468,1710,-5817,1708,-6752,-933
10624,15429,1843,-4378,2610,-7816,-780
10634,16709,1491,-3093,3523,-8731,-647
10644,17767,1141,-1648,4778,-9646,-404
10654,18415,-106,-144,5945,-10319,-30
10664,19089,-288,1133,6669,-10794,375
10674,18924,-245,1767,6848,-11114,879
10684,18147,-797,2427,6900,-11673,1535
10695,16057,-2022,576,6966,-12487,2645
10705,20536,-4315,-27917,3035,-12782,-656
10715,17880,3888,-2267,4430,-12923,1924
10725,13144,13996,20404,3996,-10081,1513
10735,5034,691,-3038,-1417,-11356,4418
10745,9670,-8040,-7929,190,-12254,2965
10755,12277,-8756,-2406,978,-11133,2142
10765,11087,-4854,-3869,2982,-9217,1008
10775,9537,-2044,-4002,4746,-8189,1849
10785,7370,-565,-4983,4305,-8129,2711
10795,6797,417,-5011,4064,-7605,2538
10805,6141,-576,-4141,2837,-6675,1857
10815,5513,-2078,-4606,2308,-6372,1631
10825,5096,-3549,-4610,2511,-6413,1682
10835,4998,-4030,-4805,2723,-6393,1536
10845,5507,-4321,-4665,3044,-6220,1435
10855,5700,-4211,-4544,3641,-5852,1393
10866,5992,-3934,-3977,4261,-5516,1435
10876,6061,-2389,-3581,4573,-5107,1659
10886,6022,-747,-2610,4582,-4673,1860
10896,5821,-266,-1683,4075,-4291,2082
10906,5368,-434,-1065,3702,-3946,2129
10916,4749,-668,-838,3776,-3735,2027
10926,4353,-399,-365,4003,-3599,1897
10936,4038,1329,-184,3647,-3392,1938
10946,3745,2612,621,3194,-3206,1876
10956,3545,2781,911,1963,-2996,1902
10966,3103,2359,843,1097,-2772,1876
10976,2693,1429,704,642,-2565,1698
10986,2357,606,756,717,-2338,1465
10996,2119,150,771,1132,-2118,1194
11006,2025,-135,758,1817,-1898,928
11016,2072,-43,1012,2277,-1642,754
11027,1977,743,704,2609,-1456,667
11037,1912,1506,1190,2617,-1219,477
11047,1849,2311,1635,2082,-1050,270
11057,1762,2673,1869,1165,-956,101
11067,1571,2304,1965,325,-957,-43
11077,1345,1260,1829,-223,-922,-330
11087,1342,444,1863,-202,-825,-637
11097,1489,-186,2053,315,-665,-992
11107,1488,-743,2116,1171,-597,-1425
11117,1506,-285,2125,1661,-568,-1756
11127,1738,1131,2729,1538,-425,-1783
11137,1666,1360,3729,1053,-426,-2007
11147,1706,770,3390,509,-513,-2407
11157,1920,-89,2681,-116,-586,-2624
11167,2246,-319,1847,-484,-562,-2839
11177,2549,-682,1783,-277,-431,-3150
11187,2677,-1067,1812,-158,-293,-3390
11197,2774,-1181,1764,-176,-244,-3576
11207,2909,-1286,1243,-137,-194,-3871
11217,3002,-1729,919,-12,-91,-4186
11228,3058,-2154,1069,-20,-21,-4444
11238,3163,-2086,1716,-312,-5,-4643
11248,3372,-2226,2628,-668,-103,-4805
11258,3762,-3196,3414,-968,-232,-4977
11268,4187,-4239,3391,-928,-273,-5130
11278,4310,-4616,3088,-588,-193,-5267
11288,4141,-4290,2931,-291,0,-5395
11298,3984,-3751,2831,-394,143,-5567
11308,4145,-3398,2707,-904,214,-5751
11318,4586,-3322,2215,-1521,196,-5903
11328,5084,-3601,1488,-2032,221,-5995
11338,5410,-4076,941,-2363,315,-6041
11348,5505,-4299,462,-2595,383,-6113
11358,5515,-4237,84,-2573,406,-6204
11368,5557,-4386,45,-2372,393,-6272
11378,5765,-4669,123,-2195,311,-6359
11388,6065,-4521,9,-2104,185,-6475
11398,6452,-4025,-102,-2040,84,-6580
11408,6891,-3546,137,-2247,47,-6577
11418,7326,-3205,69,-2701,40,-6536
11429,7955,-3364,106,-3147,83,-6442
11439,8584,-3849,-76,-3525,115,-6250
11449,8873,-4332,-264,-3730,157,-6010
11459,8739,-4470,-335,-3859,265,-5813
11469,8384,-4135,-189,-4007,410,-5639
11479,8119,-3708,-100,-4241,499,-5425
11489,8025,-3245,-253,-4528,596,-5181
11499,7869,-3123,-446,-4668,715,-4897
11509,7699,-3200,-572,-4771,794,-4635
11519,7509,-3197,-801,-4763,884,-4408
11529,7275,-3208,-941,-4530,981,-4149
11539,6991,-3342,-1015,-4167,1066,-3875
11549,6650,-3322,-883,-3814,1176,-3621
11559,6320,-3031,-695,-3638,1272,-3397
11569,6001,-2633,-579,-3664,1365,-3202
11579,5822,-2465,-427,-3823,1470,-3000
11589,5749,-2552,-333,-4018,1562,-2785
11599,5655,-2654,-243,-4120,1660,-2541
11609,5416,-2677,-93,-4123,1764,-2323
11619,5024,-2459,194,-4083,1815,-2116
11630,4862,-2090,347,-4074,1772,-1969
11640,4811,-1643,381,-4149,1714,-1812
11650,4794,-1385,407,-4129,1622,-1687
11660,4727,-1253,525,-4105,1516,-1593
11670,4622,-1023,615,-4089,1395,-1538
11680,4488,-656,584,-4101,1259,-1519
11690,4344,-336,452,-4132,1142,-1506
11700,4239,-320,325,-4230,1111,-1509
11710,4170,-586,280,-4379,1132,-1513
11720,4159,-875,176,-4463,1186,-1551
11730,4223,-1174,30,-4428,1270,-1595
11740,4317,-1493,-167,-4293,1361,-1588
11750,4356,-1760,-368,-4060,1463,-1523
11760,4421,-1890,-452,-3770,1549,-1477
11770,4486,-1811,-494,-3475,1615,-1430
11780,4544,-1764,-441,-3192,1652,-1383
11790,4527,-1649,-430,-2987,1641,-1343
11800,4431,-1411,-424,-2857,1611,-1338
11810,4183,-1150,-374,-2778,1494,-1331
11820,3939,-1042,-348,-2744,1317,-1343
11831,3822,-1137,-371,-2657,1106,-1364
11841,3816,-1371,-437,-2476,935,-1341
11851,3801,-1522,-489,-2306,802,-1269
11861,3711,-1508,-692,-2232,734,-1172
11871,3538,-1375,-937,-2209,665,-1086
11881,3421,-1192,-1216,-2218,661,-1001
11891,3267,-1184,-1335,-2219,605,-904
11901,3169,-1113,-1177,-2299,555,-839
11911,3095,-918,-1082,-2368,440,-832
11921,3228,-836,-868,-2397,304,-817
11931,3241,-750,-955,-2547,166,-790
11941,3122,-607,-1019,-2578,-10,-775
11951,3096,-603,-1334,-2610,-183,-758
11961,3259,-780,-1488,-2521,-313,-707
11971,3512,-1071,-1730,-2387,-373,-616
11981,3800,-1375,-1874,-2179,-346,-541
11991,3918,-1537,-1623,-2241,-372,-500
12001,3746,-1454,-947,-2562,-406,-542
12011,3713,-1092,-1145,-3172,-513,-693
12021,4138,-912,-1938,-3382,-513,-841
12032,4883,-1083,-2546,-3315,-500,-913
12042,5603,-1558,-3172,-3097,-583,-953
12052,5922,-2093,-3299,-2893,-690,-964
12062,6236,-1665,-3810,-2640,-753,-1043
12072,7326,-1151,-4311,-2021,-763,-1048
12082,8543,-1127,-5358,-1553,-876,-998
12092,9484,-1401,-5772,-939,-1180,-991
12102,10007,-630,-5289,-515,-1586,-1042
12112,10719,928,-4309,-203,-2158,-1126
12122,11632,1729,-4454,-84,-2824,-1163
12132,13467,1631,-4894,470,-3374,-1076
12142,15718,2499,-5120,933,-4047,-1014
12152,17324,3957,-4514,985,-4810,-974
12162,19423,2963,-3195,823,-5912,-955
12172,20808,1177,-1491,1019,-7415,-802
12182,22785,722,-26,1379,-9105,-731
12192,23966,145,1199,2284,-10788,-420
12202,23350,473,3819,3600,-12119,-99
12212,21573,1223,6556,4575,-13210,54
12222,20280,1562,7511,4776,-13938,-206
12233,19355,2029,7629,5476,-14440,-184
12243,17476,552,8525,6447,-14568,138
12253,15741,432,6995,7439,-14551,204
12263,20730,-838,703,8241,-12990,1187
12273,20825,12305,6873,6914,-11969,-429
12283,16949,-1801,3043,6086,-12362,2156
12293,7805,-5452,2112,5302,-12438,1654
12303,6827,-848,1642,7045,-11064,24
12313,6880,-567,-724,7662,-9746,1659
12323,6686,-2243,-4668,8344,-9022,2381
12333,6479,-2692,-6422,9027,-7673,2827
12343,5182,-2779,-8376,9750,-6780,3207
12353,5083,-3182,-7488,10666,-6232,3127
12363,5227,-2149,-8280,11306,-5987,3649
12373,5410,-143,-7270,11269,-5992,4112
12383,5842,819,-5422,9866,-5773,4301
12393,6104,1682,-3141,8376,-5550,4597
12403,5482,2473,-1306,6652,-5370,4803
12413,4679,2523,-441,4714,-5171,4791
12423,3971,2866,-710,2767,-4850,4469
12434,3368,2206,-423,1468,-4332,4176
12444,2506,901,-647,979,-3863,3940
12454,1865,100,-668,1130,-3516,3624
12464,1589,183,-931,1520,-3131,3265
12474,1450,547,-787,2309,-2647,2872
12484,1569,1107,163,2773,-2189,2609
12494,1436,2392,1045,2743,-1748,2394
12504,1021,3046,1450,2304,-1420,2100
12514,502,2990,1431,1442,-1283,1908
12524,121,2637,1083,980,-1211,1605
12534,-44,2113,947,789,-1167,1324
12544,-32,1567,938,638,-1180,1108
12554,-63,1409,842,700,-1159,804
12564,93,1294,1156,971,-1126,463
12574,204,1410,1635,1147,-1037,293
12584,133,1890,2271,1036,-874,166
12594,-74,2467,2754,657,-773,-24
12604,-177,2480,3149,57,-755,-250
12614,-302,1772,3027,-643,-776,-451
12624,-308,389,2778,-1501,-816,-642
12635,-245,-475,2419,-2003,-692,-796
12645,-385,-861,2996,-1776,-484,-886
12655,-643,-1440,3459,-951,-184,-1169
12665,-1195,-2061,3252,131,103,-1404
12675,-1939,-2427,3348,1184,173,-1532
12685,-2502,-2464,2852,2095,76,-1784
12695,-2583,-1994,3639,2448,-89,-2094
12705,-2793,-630,3842,2198,-127,-2124
12715,-2923,-487,3995,2541,-178,-1749
12725,-2571,-1787,4519,2487,-678,-1823
12735,-1805,-1527,3761,1819,-684,-1834
12745,-1584,-680,3708,1681,-440,-1466
12755,-2140,462,4026,519,-206,-1081
12765,-2773,1194,3424,-858,-559,-1027
12775,-2724,-95,3019,-1566,-893,-1151
12785,-2491,-2112,2342,-1550,-949,-1179
12795,-2337,-3269,1686,-572,-886,-1090
12805,-2115,-3136,1799,559,-743,-1007
12815,-1911,-1792,2700,944,-448,-988
12825,-1835,-482,3454,524,-251,-906
12836,-2029,52,3863,-718,-239,-810
12846,-2461,-132,3681,-2097,-427,-704
12856,-2794,-1404,3006,-2922,-629,-753
12866,-2855,-3490,1886,-2586,-763,-858
12876,-2755,-5303,944,-1035,-949,-823
12886,-2506,-5390,926,370,-890,-508
12896,-2538,-3570,1279,1058,-618,-224
12906,-2764,-1978,2059,1274,-529,-61
12916,-3008,-1703,3015,526,-469,-62
12926,-3181,-2326,3123,-732,-604,-46
12936,-3243,-3311,2556,-1577,-789,-40
12946,-3070,-4176,2011,-1817,-912,-90
12956,-2878,-5205,1292,-1124,-871,21
12966,-3098,-6973,1052,108,-763,372
12976,-2835,-7748,638,1272,-760,568
12986,-2387,-6698,1141,1558,-686,888
12996,-2290,-5264,1665,998,-531,1095
13006,-2462,-5268,1425,-224,-578,1162
13016,-2604,-7218,288,-1135,-955,1357
13026,-2256,-10051,-878,-931,-1295,1869
13037,-1273,-12053,-142,-411,-1463,2567
13047,-48,-12178,327,161,-1280,3101
13057,563,-11581,1001,469,-816,3488
13067,-173,-10501,1233,129,-705,3745
13077,-574,-10023,1556,-255,-712,4203
13087,6,-9916,1713,-777,-793,4692
13097,754,-9828,1757,-1073,-843,5061
13107,923,-9714,2058,-1024,-930,5405
13117,1064,-8890,2425,-915,-1052,5743
13127,1495,-7881,2891,-727,-1233,6010
13137,2134,-6814,3192,-558,-1430,6180
13147,2835,-5577,3531,-348,-1548,6292
13157,3318,-4580,3734,-21,-1704,6422
13167,3794,-3586,4059,379,-1836,6469
13177,4204,-2165,4247,730,-1898,6386
13187,4441,-622,4230,1114,-2018,6192
13197,4572,891,4017,1418,-2144,6012
13207,4619,2171,3721,1581,-2317,5806
13217,4819,3091,3282,1569,-2537,5695
13227,5138,3663,2870,1513,-2838,5597
13238,5647,4294,2265,1489,-3211,5395
13248,7066,4214,1421,1830,-3388,5257
13258,8385,3870,1171,2197,-3493,5346
13268,9211,4304,1070,2657,-3529,5086
13278,9604,5520,1196,2996,-3627,4530
13288,9764,6767,1467,3054,-3760,3947
13298,9958,7266,1842,2638,-3961,3326
13308,10252,7357,1756,2234,-4057,2608
13318,10847,6830,2139,2076,-4235,1721
13328,11144,6514,1319,2075,-4453,782
13338,11893,5976,624,2251,-4470,-365
13348,12330,6113,444,2216,-4457,-1469
13358,12073,6418,-74,1952,-4566,-2678
13368,11971,6856,-1410,913,-4753,-3987
13378,12879,7374,-3058,-727,-4876,-5455
13388,13861,7146,-4734,-2491,-5166,-6768
13398,14661,7392,-5172,-4459,-5340,-8248
13408,16158,7416,-5244,-6069,-5268,-9978
13418,19309,7441,-4199,-7926,-4852,-11909
13428,22853,4864,-1871,-9334,-4095,-13592
13439,25919,795,795,-10589,-2851,-15032
13449,27916,-3976,3126,-11559,-1304,-16228
13459,28582,-8044,4512,-12825,408,-17397
13469,29178,-11940,4222,-13504,2443,-18003
13479,26703,-14361,3450,-14240,4265,-18190
13489,24713,-13312,1705,-15126,5986,-18105
13499,18342,-7840,-9309,-12463,3053,-17886
13509,21869,-21915,1039,4501,7447,-8216
13519,11440,8893,-9550,-9011,351,-17606
13529,16989,-8838,-8530,-7043,-232,-11525
13539,14378,-5523,-3465,-9116,-139,-12985
13549,16012,-2299,2440,-9325,-633,-13448
13559,20593,-11536,8458,-7459,707,-11610
13569,16949,-9108,14408,-7456,2354,-11700
13579,18318,-6974,9609,-8457,4264,-10264
13589,16826,-6213,4115,-8640,4598,-8583
13599,12529,-2027,-420,-9235,3942,-7430
13609,11365,-718,-3691,-8805,3269,-6244
13619,10186,101,-4077,-7822,2245,-5228
13629,8986,1234,-3780,-7098,1753,-4379
13640,9664,879,-2962,-6656,1748,-3727
13650,10390,-357,-3388,-6161,1847,-3033
13660,10221,-2472,-4740,-4256,2087,-2236
13670,9030,-2894,-4401,-1989,2614,-1822
13680,7538,-1335,-4943,-125,2852,-1728
13690,6119,-538,-5210,1297,2817,-1599
13700,5519,-500,-4916,2441,2546,-1573
13710,5015,-926,-4879,3357,2208,-1431
13720,4761,-1583,-4772,3935,1827,-1349
13730,4700,-2233,-4503,4260,1381,-1210
13740,4358,-2747,-3500,4223,913,-1055
13750,3902,-3121,-2882,3951,504,-885
13760,3556,-3592,-2508,3713,195,-696
13770,3166,-3803,-1833,3480,-129,-523
13780,2787,-3858,-993,3076,-471,-385
13790,2437,-3676,-762,2445,-769,-306
13800,2397,-3682,-804,1875,-897,-266
13810,2424,-4203,-917,1476,-1071,-186
13820,2615,-4776,-1066,1311,-1243,-77
13830,2737,-5076,-1033,1301,-1431,83
13841,2645,-5427,-668,1300,-1621,186
13851,2529,-5670,-402,1287,-1786,238
13861,2514,-5548,-48,1363,-1950,288
13871,2662,-5396,976,1433,-2038,420
13881,2568,-5002,1643,1193,-2085,629
13891,2486,-4628,1738,927,-2058,843
13901,2527,-4468,1964,678,-1996,1142
13911,2347,-5004,2185,414,-1996,1459
13921,2163,-5219,1750,169,-2085,1599
13931,2590,-5354,1355,342,-2117,1651
13941,3076,-5475,1559,572,-2112,1799
13951,3442,-5265,1835,811,-2093,1925
13961,3604,-5148,2191,999,-2029,2060
13971,3729,-4970,2143,1117,-1864,2225
13981,3901,-4930,2560,1413,-1756,2348
13991,3798,-4714,2623,1489,-1752,2553
14001,3945,-4229,2463,1446,-1704,2695
14011,4293,-4432,2336,1687,-1716,2957
14021,4522,-5047,2385,1714,-1590,3321
14031,4592,-5161,2292,1780,-1474,3569
14042,4658,-4872,2494,1824,-1288,3653
14052,4674,-4786,2527,1810,-1270,3807
14062,4504,-4850,2439,1848,-1254,4007
14072,4545,-5048,2290,1877,-1199,4074
14082,4751,-4975,2001,2014,-1164,4178
14092,4633,-4977,1938,2090,-1175,4305
14102,4417,-5056,1905,2041,-1210,4354
14112,4504,-5162,1825,1866,-1202,4347
14122,4691,-5440,1722,1809,-1222,4363
14132,4792,-6030,1715,1768,-1213,4363
14142,4778,-6218,1213,1789,-1264,4297
14152,4822,-6236,932,1905,-1236,4298
14162,4792,-6108,896,1842,-1139,4340
14172,4657,-6254,776,1924,-1047,4461
14182,4438,-6895,794,2074,-973,4565
14192,4307,-7308,981,2272,-965,4590
14202,4397,-7204,784,2452,-1042,4543
14212,4807,-6890,438,2547,-985,4566
14222,4836,-7003,167,2650,-891,4746
14232,4792,-7213,134,2752,-745,4894
14242,4792,-7224,-247,2907,-624,4978
14252,4747,-7708,-627,3275,-578,5122
14262,4719,-8381,-872,3636,-566,5268
14272,4984,-8908,-821,3901,-416,5393
14282,4660,-9312,-100,3541,-310,5593
14293,4822,-9907,66,3025,-222,5840
14303,4835,-11292,-245,2571,-159,6308
14313,5129,-12473,-458,2284,-26,6764
14323,5560,-12487,-351,1937,104,7222
14333,5930,-12995,-63,1814,108,7841
14343,6540,-13379,309,1727,223,8427
14353,7067,-12584,519,1704,342,8909
14363,7167,-11673,690,1731,301,9395
14373,7424,-10793,802,1861,237,9770
14383,7594,-9672,980,1981,82,9983
14393,7654,-8793,971,2152,-110,10123
14403,7860,-8012,972,2410,-357,10156
14413,7876,-7078,1097,2650,-622,10077
14423,7948,-6070,1546,2948,-932,9906
14433,8025,-5145,1614,3334,-1223,9642
14443,8182,-4099,1470,3867,-1396,9317
14453,8113,-2134,1217,4318,-1324,8887
14463,7701,-285,683,4600,-1156,8478
14473,7426,1132,-2,4564,-927,8197
14483,7176,2002,-498,4406,-696,8036
14493,6648,2425,-427,4366,-645,7974
14503,6341,2666,-499,4447,-709,7841
14513,6328,2734,-577,4715,-911,7744
14523,6701,3035,-617,4950,-1162,7650
14533,7114,3442,-442,5239,-1476,7565
14544,8129,3441,-248,5633,-1740,7364
14554,9258,3696,-163,6248,-1847,6992
14564,10178,5391,-273,6978,-1759,6431
14574,10332,8099,-695,7424,-1828,5759
14584,10067,11344,-874,6909,-2014,4985
14594,9220,13222,-1222,6258,-2402,3907
14604,8330,13086,-2000,5549,-2840,2476
14614,8045,12774,-3300,5032,-3027,734
14624,8791,12241,-3858,4542,-3169,-1098
14634,9013,11401,-3315,3530,-3703,-2571
14644,9597,10121,-3842,1733,-4271,-4185
14654,11294,8165,-4632,-389,-4557,-5723
14664,12171,5145,-5246,-2408,-4949,-6995
14674,12884,5110,-4738,-4210,-4920,-8552
14684,13850,7049,-3388,-6301,-4679,-10119
14694,14298,7984,-2316,-8632,-4292,-11598
14704,15855,8123,-2135,-11057,-3385,-12962
14714,17136,7195,-1906,-13557,-2387,-14115
14724,18234,7512,-3542,-16271,-1125,-15087
14734,20298,5782,-5224,-18797,155,-15410
14744,21321,3318,-7661,-21175,1141,-15141
14754,19748,1250,-9240,-23268,1599,-13889
14764,15309,-294,-11256,-24448,1654,-11666
14774,185,12240,7367,-24968,1865,-11647
14784,6175,-7917,-19805,-11912,1114,-2791
14795,14851,-26243,-11655,-5133,4262,-3950
14805,-1785,3246,7624,2556,1917,-7145
14815,-4863,20975,14233,-1998,3119,-8097
14825,9141,12639,-11982,-6742,3217,-6756
14835,29513,-11502,10574,4973,2763,-5281
14845,6321,-14124,-4176,-2180,2948,-1097
14855,8608,5456,-158,4216,4071,-5035
14865,6295,7826,-2475,1911,4362,-3182
14875,10664,56,-1340,1933,2753,-4018
14885,7776,-1679,-1089,3332,2175,-3508
14895,9779,-477,-1183,3585,1960,-3560
14905,9809,-2234,-976,3505,1405,-3389
14915,9239,-3624,-405,3776,981,-3382
14925,8493,-3348,903,3797,476,-3375
14935,7957,-3903,1651,3437,44,-3458
14945,7822,-4639,2234,3004,-303,-3566
14955,7775,-5009,2616,2707,-515,-3655
14965,8132,-4682,2525,2350,-624,-3634
14975,8750,-4549,2343,1956,-754,-3653
14985,9253,-4937,2295,1457,-902,-3767
14995,9501,-4972,2111,1004,-1086,-3885
15005,9836,-5475,2026,578,-1273,-4044
15015,9988,-5673,1886,197,-1403,-4275
15025,10136,-5565,1648,-141,-1461,-4518
15035,10154,-5502,1813,-363,-1566,-4752
15046,10180,-5879,1977,-638,-1637,-4980
15056,10273,-6378,1971,-936,-1769,-5297
15066,10249,-6724,2004,-1189,-1942,-5612
15076,10162,-6948,1827,-1226,-2151,-5893
15086,10006,-7414,1760,-1024,-2335,-5997
15096,9787,-7378,1522,-795,-2385,-6014
15106,9749,-7648,1669,-212,-2211,-5855
15116,9382,-8312,2157,45,-1985,-5601
15126,9012,-8797,2514,44,-1832,-5470
15136,8201,-8938,2554,-186,-1803,-5425
15146,7281,-9092,2605,-298,-1878,-5419
15156,6506,-8490,2263,-453,-1825,-5411
15166,6063,-7377,2603,-384,-1885,-5284
15176,5927,-6416,2789,-147,-1865,-4958
15186,5627,-6096,3187,193,-1759,-4584
15196,5250,-4797,4002,245,-1485,-4462
15206,5003,-3417,4732,338,-1168,-4409
15216,4710,-2870,5009,23,-1057,-4158
15226,4784,-3031,4530,-491,-978,-3934
15236,4950,-4063,4164,-819,-990,-3656
15247,4909,-5004,3782,-782,-980,-3293
15257,4675,-5624,3726,-473,-929,-2775
15267,4198,-5911,3770,-268,-876,-2214
15277,3790,-5662,3995,-228,-726,-1718
15287,3667,-5396,3740,-297,-612,-1220
15297,3599,-5269,3728,-179,-441,-629
15307,3459,-4845,3634,11,-283,-84
15317,3304,-4075,3716,248,-83,389
15327,3122,-3524,3747,466,85,765
15337,2880,-3063,3797,516,256,1005
15347,2611,-2325,3781,547,441,1153
15357,2472,-1827,3945,485,553,1311
15367,2489,-1617,3663,312,587,1434
15377,2720,-1806,3414,208,568,1577
15387,2808,-2227,3065,319,578,1739
15397,3156,-2594,2919,489,620,1881
15407,3613,-2357,2855,729,787,2000
15417,3735,-2020,2853,768,914,2211
15427,3682,-1912,2691,642,978,2398
15437,3684,-2014,2550,436,1003,2542
15448,3824,-1954,2535,251,1020,2625
15458,3999,-1788,2472,55,933,2712
15468,4180,-1807,2382,-23,814,2772
15478,4318,-1792,2256,-30,707,2794
15488,4498,-1654,2045,3,609,2773
15498,4660,-1749,1521,177,521,2780
15508,4690,-1611,967,500,519,2750
15518,4737,-1146,907,830,582,2724
15528,4547,-794,907,980,572,2766
15538,4330,-623,684,1046,542,2801
15548,4207,-621,401,1133,484,2818
15558,4152,-802,291,1334,460,2829
15568,4198,-985,373,1527,493,2861
15578,4057,-784,420,1598,559,2888
15588,3750,-723,705,1652,564,2831
15598,3485,-999,727,1515,467,2763
15608,3520,-1492,669,1339,350,2742
15618,3711,-1659,597,1070,268,2727
15628,3866,-1821,413,846,181,2735
15638,3778,-2429,241,700,29,2828
15649,3846,-2844,-69,615,-86,2942
15659,3954,-3101,-248,839,-116,2959
15669,3980,-3421,45,934,-116,3025
15679,3598,-3195,-160,658,-299,3021
15689,3446,-2896,-640,358,-625,2927
15699,3666,-3580,-1440,245,-900,3002
15709,4315,-4817,-2066,561,-952,3223
15719,4736,-5678,-2098,953,-842,3466
15729,4901,-6027,-2614,1418,-870,3664
15739,5476,-6606,-3003,1946,-752,4128
15749,5476,-6424,-2212,1692,-788,4643
15759,6053,-6802,-2161,1296,-1028,5012
15769,6864,-8265,-2144,1292,-1216,5650
15779,7342,-8725,-2041,1370,-1230,6079
15789,7434,-8528,-1771,1615,-1324,6494
15799,7557,-8459,-1472,1687,-1332,6926
15809,7631,-8311,-1369,1711,-1407,7232
15819,7853,-7993,-1120,1647,-1421,7525
15829,7856,-7661,-955,1619,-1463,7738
15839,7779,-7223,-922,1680,-1469,7793
15850,7707,-6388,-698,1724,-1446,7767
15860,7698,-5235,-327,1761,-1423,7663
15870,7370,-4269,287,1594,-1502,7559
15880,7233,-3726,1073,1475,-1617,7375
15890,6892,-3214,2017,1348,-1797,7125
15900,6575,-2450,2558,1415,-1988,6753
15910,6188,-1713,3010,1506,-2076,6399
15920,5732,-581,2750,1430,-2137,5945
15930,5128,7,2209,1633,-2120,5437
15940,4746,-85,1438,2201,-2181,4996
15950,5055,201,1417,2563,-1853,4743
15960,4512,1622,1323,2503,-1705,4357
15970,4064,2549,1651,2555,-1902,3898
15980,3717,2554,1844,2603,-2215,3654
15990,3698,2357,1597,2806,-2477,3408
16000,3955,2305,1888,2945,-2598,3115
16010,4158,2599,1770,2607,-2933,2920
16020,4638,2935,1334,2439,-3274,2526
16030,5407,3177,1177,2238,-3568,2230
16040,6071,3180,896,2024,-3815,2007
16051,6685,3163,712,1997,-4001,1679
16061,7333,3566,687,1951,-4175,1297
16071,8009,3944,1013,1927,-4400,865
16081,8805,4357,1154,1724,-4582,384
16091,9670,4853,1176,1743,-4588,-158
16101,10303,5394,1723,1696,-4465,-658
16111,10599,6026,2100,1461,-4352,-1130
16121,11035,6707,1964,1306,-4274,-1743
16131,11446,7618,1647,941,-4094,-2345
16141,11755,7948,2140,419,-3972,-2967
16151,11723,8034,1793,-294,-4094,-3680
16161,12390,8745,893,-893,-4167,-4731
16171,13758,9781,162,-1403,-4023,-5894
16181,14433,10248,-153,-2173,-3977,-7029
16191,15033,10465,-1532,-3311,-4151,-8503
16201,16998,10432,-2893,-4587,-4045,-10184
16211,20013,8896,-3876,-6368,-3781,-11617
16221,25417,4786,-4382,-8011,-3273,-12839
16231,29741,-697,-4134,-10212,-2491,-13748
16241,32545,-7286,-4973,-12970,-1456,-14788
16251,-32768,-13308,-5445,-15563,342,-15234
16261,31619,-17579,-7484,-18001,2402,-15430
16271,28839,-20117,-9418,-19563,4453,-14638
16281,24305,-20914,-6191,-20720,6020,-13372
16291,16725,-28898,-32768,-6706,2829,-12438
16302,12153,-7530,1364,-11514,5264,-6388
16312,15050,136,-4653,-13919,4445,-11687
16322,10277,-10119,-1353,-19288,3436,-5942
16332,13341,-12929,-4277,-18761,4867,-6970
16342,12742,-14231,-3363,-18081,5964,-4110
16352,8753,-9762,-4705,-16041,5527,-2298
16362,5761,-5449,-4603,-14239,4764,-799
16372,4388,-3387,-2822,-12661,4481,-78
16382,4018,-2249,-647,-11287,4368,358
16392,4320,-2447,421,-9920,4270,820
16402,4510,-1295,741,-8645,4210,1157
16412,3823,435,149,-7626,3909,1534
16422,3781,802,-1780,-6621,3282,1770
16432,3490,984,-3684,-5285,2431,1819
16442,2997,1417,-4853,-3765,1420,1782
16452,3238,1456,-5364,-2409,607,1685
16462,3461,788,-4829,-1309,-115,1527
16472,3260,-55,-4296,-305,-611,1439
16482,2888,-97,-3676,607,-850,1436
16492,2716,-305,-3435,1305,-1033,1494
16502,2401,-262,-3378,1767,-1175,1491
16512,1991,-110,-3520,2042,-1325,1460
16522,1705,-277,-3643,2249,-1443,1402
16532,1501,-469,-3916,2366,-1504,1340
16542,1295,-652,-4027,2554,-1574,1237
16553,1181,-1052,-4001,2770,-1598,1139
16563,1129,-1362,-4003,3155,-1587,1031
16573,1200,-1455,-3690,3377,-1541,936
16583,1341,-1384,-3518,3521,-1523,896
16593,1237,-1750,-3107,3589,-1570,859
16603,1169,-2115,-2571,3557,-1616,808
16613,1054,-2309,-1938,3372,-1744,789
16623,857,-2687,-1186,3241,-2002,707
16633,867,-3294,-353,3103,-2266,631
16643,632,-3691,-325,2897,-2549,544
16653,579,-4336,-402,2807,-2733,445
16663,754,-4996,-318,2729,-2841,400
16673,957,-5370,-98,2827,-2891,398
16683,766,-5590,402,2868,-2960,451
16693,422,-5489,913,2697,-3086,457
16703,128,-4966,1437,2375,-3322,413
16713,267,-4252,1885,1932,-3392,469
16723,83,-4149,2544,1657,-3503,587
16733,-8,-3817,1897,1104,-3429,738
16743,-18,-4469,943,1137,-3399,910
16753,758,-6154,1011,1297,-3265,1056
16763,1032,-7047,570,1435,-2901,1219
16773,1156,-6921,1237,1813,-2328,1359
16783,1103,-6018,2309,1832,-1771,1509
16793,650,-5310,3149,1761,-1473,1606
16804,4,-5299,3373,1457,-1523,1706
16814,-209,-5435,2858,1241,-1861,1787
16824,12,-5341,2185,1354,-2137,1729
16834,30,-5179,1680,1686,-2310,1762
16844,32,-5564,1577,1951,-2511,1843
16854,381,-5266,1102,1948,-2575,1834
16864,664,-4654,879,1772,-2515,1810
16874,774,-4482,1258,1616,-2453,1849
16884,819,-4551,1449,1417,-2438,1920
16894,1004,-4620,1450,1442,-2451,2024
16904,1153,-4984,1452,1589,-2446,2175
16914,1257,-5434,1233,1697,-2424,2293
16924,1553,-5311,1005,1685,-2294,2387
16934,1665,-5360,957,1490,-2219,2521
16944,1706,-5816,788,1357,-2196,2691
16954,1954,-6331,674,1426,-2116,2876
16964,2323,-6691,478,1518,-1978,3074
16974,2604,-6746,359,1475,-1773,3385
16984,2501,-6848,281,933,-1743,3673
16994,2833,-7212,-26,588,-1677,3783
17004,3262,-8071,-138,481,-1658,4164
17014,3765,-8711,-155,397,-1623,4507
17024,4328,-9131,-227,400,-1643,4849
17034,4767,-9529,-135,545,-1643,5331
17044,5115,-9310,275,469,-1616,5796
17055,5337,-8475,596,242,-1706,6158
17065,5428,-8040,926,158,-1795,6562
17075,5727,-7661,1186,128,-1805,6933
17085,5889,-7029,1307,157,-1854,7224
17095,5784,-6360,1529,246,-1921,7452
17105,5870,-5666,1860,360,-2025,7581
17115,5873,-4839,2196,439,-2189,7637
17125,5891,-4227,2432,579,-2394,7611
17135,5739,-3825,2475,756,-2636,7527
17145,5734,-3127,2322,1007,-2852,7321
17155,5789,-2168,1753,1365,-2984,7012
17165,5860,-1198,1480,1686,-3017,6734
17175,5667,-37,1000,1907,-3036,6435
17185,5591,1047,683,2140,-3017,6130
17195,5528,2044,875,2435,-3024,5980
17205,5389,2990,1239,2749,-3191,5914
17215,5739,3406,1417,3224,-3503,5791
17225,6664,3272,1828,3841,-3741,5706
17235,7745,3762,2325,4452,-3660,5586
17245,8599,5029,2434,4969,-3420,5230
17255,8983,6415,2624,5045,-3393,4770
17265,9253,7401,2792,4454,-3517,4224
17275,9273,7617,2703,3501,-3626,3475
17285,9078,7247,2431,2814,-3863,2711
17295,8939,6411,2534,2907,-3947,2048
17306,8674,5907,2079,3189,-3928,1167
17316,8318,6796,1414,3254,-4006,21
17326,8186,8585,629,2601,-4182,-1136
17336,8440,9265,-284,1481,-4429,-2090
17346,8954,8670,-1208,302,-4617,-3096
17356,9654,8471,-2025,-875,-4750,-4359
17366,10767,9057,-2816,-2116,-4882,-5649
17376,12712,10377,-3426,-3531,-4781,-7249
17386,15238,10233,-3012,-5013,-4625,-8881
17396,17452,9368,-2406,-6588,-4359,-10600
17406,20651,7104,-1675,-8566,-3971,-12278
17416,24824,3103,-2015,-10815,-3181,-13513
17426,28168,-2860,-2313,-13145,-2239,-14139
17436,28537,-8935,-3627,-15597,-958,-14489
17446,27288,-13171,-4225,-17435,616,-14765
17456,22482,-14348,-3081,-18537,2148,-14207
17466,18503,-12054,-132,-19301,3421,-13871
17476,15384,-8728,2928,-19965,4500,-13297
17486,-321,910,-5624,-17874,1110,-13924
17496,14306,-7127,-16698,-6041,4495,-3844
17506,16554,-215,-11403,-5360,2038,-9953
17516,7743,-1584,11439,-1753,3810,-6576
17526,11448,10262,7301,-6778,5259,-8807
17536,13418,1288,1143,-9818,3685,-6951
17546,14863,-4970,-2332,-9017,4121,-5733
17557,13116,-3846,-289,-6800,3979,-4334
17567,11584,-2466,995,-5684,4280,-3350
17577,10336,-1147,1165,-5493,4151,-2642
17587,9356,-1434,367,-5165,3891,-1910
17597,8868,-2232,-505,-4130,3697,-1211
17607,8031,-2080,-701,-3112,3633,-724
17617,7439,-2007,-718,-2400,3444,-493
17627,6519,-1688,-378,-2018,3299,-348
17637,5834,-1563,-252,-1778,3187,-227
17647,5335,-1822,-291,-1527,3058,-157
17657,4986,-1585,-81,-1358,2932,-138
17667,4879,-1807,-202,-1227,2714,-105
17677,4793,-2387,-333,-998,2516,-30
17687,4697,-2171,-389,-819,2312,90
17697,4635,-2217,-444,-738,2050,175
17707,4405,-2501,-521,-668,1773,300
17717,4159,-2445,-482,-731,1505,376
17727,3970,-2745,-557,-817,1237,346
17737,3660,-2378,-651,-1002,1056,297
17747,3348,-2084,-748,-1295,818,282
17757,3095,-2225,-915,-1577,663,245
17767,2866,-2274,-1025,-1743,505,234
17777,2585,-2150,-1002,-1727,384,183
17787,2250,-1895,-775,-1655,212,146
17797,1755,-1963,-752,-1389,-15,117
17808,1364,-2337,-561,-1029,-135,32
17818,1072,-2696,-514,-705,-223,-92
17828,1072,-2828,-82,-578,-393,-149
17838,999,-2975,-369,-411,-432,-187
17848,896,-2943,-420,-260,-506,-279
17858,787,-2688,-456,-280,-553,-306
17868,881,-2620,-34,-211,-502,-318
17878,1007,-3091,389,-396,-414,-367
17888,953,-3435,690,-454,-386,-407
17898,967,-3429,933,-485,-316,-428
17908,976,-3638,1181,-373,-249,-431
17918,952,-3617,1306,-607,-150,-342
17928,829,-3603,1495,-669,-84,-305
17938,817,-3833,1679,-602,-33,-242
17948,812,-4260,2001,-473,50,-129
17958,881,-4532,2111,-357,168,-61
17968,1030,-4708,2292,-268,290,-21
17978,1024,-4714,2262,-233,343,15
17988,926,-4632,2619,-125,392,52
17998,764,-4443,2931,-82,429,122
18008,693,-4369,3119,34,450,172
18018,654,-4436,3137,132,462,215
18028,585,-4641,3179,341,477,256
18038,575,-4825,3129,694,468,309
18048,664,-4553,3610,877,493,408
18059,380,-3933,3573,1129,377,444
18069,213,-4217,3742,1513,200,476
18079,290,-4761,3555,2031,7,527
18089,467,-4833,3084,2885,-161,540
18099,972,-4516,2780,3675,-177,650
18109,1032,-3853,3005,3973,-33,796
18119,674,-3403,3268,4002,-21,783
18129,617,-3183,3408,3817,10,678
18139,693,-3107,3068,3711,-30,586
18149,1051,-2836,2743,3646,11,490
18159,979,-2854,2358,3902,-22,382
18169,882,-3123,2486,4495,-159,384
18179,1060,-2477,2539,5130,-228,490
18189,1330,-1087,2682,5794,-100,569
18199,1522,-244,3382,6157,-7,752
18209,1717,-330,3466,6101,-169,1145
18219,1400,-384,3456,5975,-424,1605
18230,456,-511,3024,5853,-560,1373
18240,1150,-573,2448,6025,-722,1186
18250,1827,-286,2159,6291,-745,1407
18260,1736,-274,2485,6387,-548,1353
18270,2118,-1041,3638,6665,-237,1665
18280,1133,366,3973,6268,-45,1532
18290,1186,1025,4237,5496,-103,1534
18300,1029,-73,3463,4805,-224,1739
18310,999,-1355,2810,4682,-261,1799
18320,1561,-1337,2251,4921,-62,2007
18330,1633,-786,2534,5188,211,2313
18340,1350,72,3201,5201,514,2528
18350,1180,806,3907,4905,612,2704
18360,579,1002,3415,4730,335,3062
18370,416,665,3378,4817,207,3257
18380,453,705,2788,4830,118,3520
18390,667,1161,2325,4634,27,3662
18401,708,2096,1837,4404,-88,3787
18411,1043,2499,2818,4016,-124,4067
18421,992,1724,2133,3882,-387,4198
18431,1544,2448,1359,4184,-453,4215
18441,1720,3475,1548,4362,-618,4311
18451,2073,4529,1255,4236,-763,4199
18461,2432,5641,904,4291,-890,3978
18471,2706,6763,436,4395,-914,3734
18481,2634,8089,-33,4526,-1075,3279
18491,3042,9740,-958,4598,-1335,2442
18501,3650,13188,-2098,4197,-1375,1582
18511,3451,16492,-2317,3137,-1535,386
18521,3891,17467,-3989,1802,-1713,-1156
18531,4959,18138,-5070,107,-1971,-3413
18541,5227,15754,-5471,-1714,-2467,-5847
18551,4934,11688,-4545,-3436,-3035,-7968
18562,5799,7790,-3555,-5126,-3145,-9930
18572,5913,2776,-665,-6736,-3384,-11418
18582,7105,-788,3224,-9074,-3004,-11783
18592,8308,-663,3642,-12450,-2490,-11211
18602,7439,-816,88,-14783,-791,-10802
18612,25874,-7308,-8178,-1886,4291,-8182
18622,-1311,-6429,10413,-9023,1141,-2592
18632,-8280,14598,-12207,-11664,-350,-8278
18642,12809,-1609,2007,-14118,-1654,-5639
18652,6923,-4760,-4489,-11558,-180,-636
18662,10286,-9567,7456,-4047,2908,-428
18672,-494,8809,10484,-5529,3588,-3780
18682,353,5552,8909,-8357,2858,-2599
18692,3191,-2640,1895,-8379,2719,-282
18702,3671,-5925,862,-6394,2620,-324
18712,1975,-3753,2678,-4903,2829,13
18722,1089,-1803,3240,-4768,2738,331
18733,1161,-1685,2532,-5099,2493,475
18743,1299,-2267,1586,-5203,2302,622
18753,1198,-3014,482,-4880,2217,744
18763,914,-3071,152,-4196,2387,862
18773,329,-2330,377,-3391,2579,858
18783,81,-1337,629,-2653,2715,863
18793,76,-698,657,-2094,2685,943
18803,233,-566,510,-1694,2287,974
18813,-70,-756,586,-1593,2046,1016
18823,-40,-343,625,-1654,1908,831
18833,-243,19,1274,-1876,1569,756
18843,-406,163,1184,-1929,1214,432
18853,-129,107,1082,-1964,811,456
18863,-124,-342,790,-2026,399,433
18873,172,-1107,261,-1936,58,328
18883,502,-1583,-56,-1781,-129,173
18893,543,-1454,-26,-1522,-254,5
18904,542,-1157,358,-1296,-362,-124
18914,579,-861,533,-1219,-472,-288
18924,761,-589,652,-1238,-675,-290
18934,709,-326,645,-1309,-735,-271
18944,689,62,898,-1493,-719,-352
18954,484,5,872,-1731,-779,-557
18964,462,-408,1042,-1961,-770,-755
18974,658,-853,1024,-2079,-751,-1041
18984,1113,-1314,830,-2045,-721,-1274
18994,1171,-2070,843,-1994,-750,-1525
19004,1070,-2514,1274,-2029,-799,-1737
19014,745,-2242,1570,-2294,-858,-1974
19024,603,-2238,1253,-2406,-1004,-2257
19034,967,-2596,728,-2408,-1117,-2400
19044,1371,-2742,509,-2252,-1224,-2460
19054,1566,-2628,503,-2238,-1331,-2585
19065,1632,-2101,482,-2272,-1331,-2763
19075,1735,-1923,585,-2359,-1313,-2961
19085,1824,-2145,574,-2500,-1406,-3122
19095,2009,-2446,630,-2644,-1461,-3306
19105,2385,-2826,693,-2705,-1498,-3581
19115,2740,-3351,102,-2480,-1584,-3733
19125,3111,-3676,-595,-1757,-1579,-3839
19135,3441,-3659,-840,-931,-1527,-4048
19145,3701,-3482,-910,-306,-1512,-4342
19155,3983,-3397,-1015,100,-1494,-4619
19165,4419,-3560,-961,505,-1499,-4871
19175,5083,-3704,-574,819,-1420,-5087
19185,5690,-3583,-117,863,-1385,-5212
19195,6136,-3340,404,605,-1312,-5380
19205,6532,-3403,1329,17,-1296,-5537
19216,6819,-3778,1808,-901,-1341,-5654
19226,7097,-4421,1788,-1734,-1430,-5763
19236,7663,-5046,1485,-2167,-1407,-5858
19246,8062,-5445,1311,-2341,-1279,-5943
19256,8144,-5636,1439,-2268,-1131,-6055
19266,7935,-5853,1724,-2149,-1044,-6120
19276,7842,-6018,1808,-2046,-1027,-6123
19286,7782,-5935,1377,-1829,-1060,-6066
19296,7806,-5681,1238,-1509,-1022,-6005
19306,7527,-5276,1051,-1472,-1112,-6035
19316,7612,-4330,401,-1570,-1115,-6282
19326,8028,-3987,-15,-1501,-956,-6420
19336,8524,-4203,369,-1428,-571,-6403
19346,8732,-4030,837,-1235,-225,-6300
19357,8329,-3841,996,-869,42,-6201
19367,8124,-3532,1206,-558,293,-6071
19377,8014,-2898,1517,-459,524,-5696
19387,7669,-2267,1574,-605,583,-5290
19397,7459,-1654,1490,-1037,486,-4876
19407,7201,-1143,741,-1512,344,-4344
19417,6948,-1276,753,-1926,245,-3881
19427,6796,-1616,689,-2615,149,-3565
19437,6618,-1833,373,-2967,152,-3299
19447,6334,-2012,430,-2953,196,-2953
19457,5753,-1835,550,-2955,192,-2672
19467,5322,-1058,448,-3002,164,-2523
19477,5243,-326,393,-3114,181,-2347
19487,5333,-347,346,-3182,191,-2116
19498,5176,-640,369,-3485,213,-1973
19508,5020,-444,315,-3707,237,-1887
19518,4712,-346,322,-3814,245,-1749
19528,4454,-546,244,-4069,187,-1601
19538,4434,-869,11,-4376,129,-1457
19548,4332,-1265,-193,-4612,79,-1293
19558,4091,-1615,-357,-4751,26,-1114
19568,3855,-1846,-437,-4822,-34,-934
19578,3691,-1950,-549,-4846,-106,-753
19588,3560,-1957,-752,-4803,-176,-580
19598,3364,-2054,-783,-4657,-222,-367
19608,3112,-2213,-854,-4435,-251,-139
19618,2989,-2296,-692,-4303,-261,123
19628,2821,-2334,-874,-4249,-231,297
19638,2685,-2592,-856,-4003,-230,359
19649,2666,-2751,-709,-3703,-238,433
19659,2600,-2578,-494,-3354,-264,495
19669,2558,-2307,-284,-3067,-313,497
19679,2613,-2280,-38,-2846,-393,519
19689,2650,-2407,132,-2717,-495,524
19699,2785,-2407,158,-2651,-590,506
19709,2895,-2196,284,-2617,-643,509
19719,2917,-1943,392,-2653,-708,519
19729,2972,-1896,508,-2739,-789,530
19739,3094,-2204,628,-2782,-914,577
19749,3283,-2473,710,-2806,-978,622
19759,3423,-2588,851,-2735,-1004,644
19769,3486,-2553,1012,-2694,-1026,662
19779,3539,-2567,1017,-2621,-1069,678
19790,3539,-2678,968,-2533,-1080,692
19800,3550,-2712,920,-2366,-1075,658
19810,3617,-2767,1166,-2161,-1083,652
19820,3603,-2727,1334,-2026,-1110,604
19830,3702,-2559,1332,-1848,-1156,559
19840,3864,-2546,1387,-1584,-1189,546
19850,3986,-2550,1401,-1381,-1225,522
19860,4108,-2403,1445,-1193,-1247,488
19870,4184,-2120,1510,-1038,-1281,447
19880,4305,-1971,1498,-919,-1345,430
19890,4450,-2001,1398,-829,-1422,436
19900,4577,-1961,1233,-737,-1455,421
19910,4623,-1890,1140,-560,-1451,404
19920,4617,-1977,1072,-305,-1446,385
19931,4583,-1969,1020,-46,-1447,352
19941,4503,-1776,898,272,-1453,329
19951,4439,-1607,862,616,-1474,318
19961,4412,-1542,765,990,-1494,327
19971,4416,-1530,762,1385,-1505,328
19981,4411,-1387,672,1763,-1529,315
19991,4363,-1282,682,2199,-1543,337
20001,4406,-1163,648,2565,-1580,345
20011,4510,-1080,535,2916,-1593,381
20021,4630,-1035,413,3221,-1576,431
20031,4667,-1024,396,3489,-1547,488
20041,4730,-1049,376,3763,-1505,532
20051,4787,-1041,356,4043,-1462,565
20061,4957,-930,365,4289,-1418,615
20072,5083,-835,434,4430,-1375,693
20082,5206,-897,538,4490,-1323,764
20092,5288,-855,517,4457,-1287,813
20102,5303,-650,511,4397,-1258,858
20112,5289,-402,670,4217,-1251,945
20122,5409,-369,790,3936,-1276,1008
20132,5700,-504,781,3685,-1313,1039
20142,5974,-701,631,3490,-1327,1051
20152,6050,-830,463,3381,-1311,1075
20162,5920,-888,330,3288,-1286,1123
20172,5598,-885,209,3227,-1247,1179
20182,5271,-826,88,3135,-1209,1213
20192,4976,-747,-62,3016,-1149,1260
20202,4731,-782,-142,2949,-1122,1312
20212,4511,-903,-230,2873,-1081,1343
20222,4367,-952,-380,2865,-1046,1353
20232,4337,-967,-424,2925,-1001,1343
20242,4325,-982,-506,2983,-957,1306
20252,4352,-904,-639,3068,-931,1260
20262,4389,-769,-738,3170,-880,1228
20272,4438,-618,-844,3210,-836,1208
20282,4411,-488,-970,3216,-746,1202
20292,4287,-427,-1049,3213,-667,1180
20302,4123,-376,-1102,3162,-585,1163
20312,3893,-328,-1149,3067,-513,1149
20322,3670,-292,-1180,2997,-458,1091
20332,3519,-354,-1181,2971,-427,1013
20342,3441,-431,-1231,2966,-406,939
20352,3384,-475,-1183,2993,-375,878
20362,3330,-442,-1142,2988,-339,809
20372,3283,-358,-1052,2933,-307,716
20382,3264,-203,-930,2769,-276,627
20392,3243,-84,-825,2518,-258,521
20402,3228,-42,-729,2229,-243,409
20413,3211,-128,-675,1917,-228,301
20423,3158,-235,-634,1639,-222,183
20433,3143,-358,-630,1406,-236,67
20443,3130,-441,-701,1203,-252,-26
20453,3139,-540,-734,1107,-254,-114
20463,3138,-687,-724,1052,-244,-226
20473,3133,-805,-746,1063,-248,-317
20483,3167,-946,-769,1142,-275,-405
20493,3294,-958,-854,1247,-310,-463
20503,3441,-980,-845,1391,-303,-531
20513,3590,-989,-631,1434,-287,-612
20523,3740,-882,-522,1335,-273,-667
20533,3839,-698,-403,1153,-264,-684
20543,3849,-576,-252,913,-268,-697
20553,3881,-563,-225,672,-316,-713
20563,3889,-665,-219,563,-361,-700
20573,3874,-889,-125,628,-399,-704
20583,3928,-1132,-5,772,-475,-712
20593,3987,-1248,122,923,-511,-694
20603,4033,-1086,99,999,-532,-713
20613,4012,-699,167,928,-545,-735
20623,3961,-265,72,768,-574,-736
20633,3940,-198,133,623,-655,-707
20643,3985,-220,456,207,-750,-665
20653,4049,-83,436,-260,-790,-658
20663,4194,-350,604,-533,-801,-748
20673,4317,-879,579,-597,-769,-818
20683,4349,-1228,417,-385,-762,-880
20693,4390,-1196,332,-55,-749,-908
20703,4433,-790,535,68,-707,-912
20713,4525,-126,741,-77,-704,-874
20723,4509,291,793,-348,-666,-861
20733,4554,231,901,-697,-622,-879
20744,4669,-199,842,-967,-588,-893
20754,4867,-630,764,-1025,-569,-876
20764,5075,-796,779,-928,-531,-868
20774,5261,-778,822,-818,-467,-892
20784,5363,-877,824,-691,-419,-886
20794,5370,-1002,856,-607,-346,-841
20804,5342,-950,515,-479,-240,-830
20814,5404,-1059,378,-153,-60,-769
20824,5435,-1419,92,245,195,-702
20834,5483,-1974,71,707,585,-607
20844,5547,-2276,602,1149,981,-514
20854,5439,-2293,780,1475,1433,-470
20864,5215,-1811,1221,1645,1898,-419
20874,4843,-1311,2481,1627,2140,-456
20884,4285,-1077,3650,1020,2092,-499
20894,3529,-1580,4563,416,1669,-648
20904,3267,-2452,4162,46,1288,-723
20914,3601,-3064,3488,110,1149,-652
20924,3114,-2261,3585,-162,854,-667
20934,2818,-2256,3059,-361,291,-746
20944,2780,-3076,2831,-591,-139,-722
20954,3419,-3173,1913,-109,-42,-668
20964,3300,-2890,1520,273,-32,-852
20974,3667,-518,2638,165,2,-1116
20984,3611,-113,3493,1240,-269,-890
20994,2338,-1234,3072,680,-873,-426
21004,2721,-1336,1993,-241,-1237,-1071
21014,4414,-463,649,705,-1525,-617
21024,4221,48,1547,234,-1573,-435
21034,3904,882,979,-604,-1548,-473
21044,3955,-616,1374,-908,-1033,-70
21054,4151,-1737,1533,-2472,-972,-205
21064,3557,-2029,-2060,-1924,-686,205
21075,1920,-2763,-238,-639,-189,-713
21085,3324,-1814,-2017,1149,-927,173
21095,4392,-2130,1107,1731,-1076,702
21105,3832,-1759,-512,145,-341,449
21115,3255,-1891,-698,1460,726,-73
21125,3583,-2584,-444,1940,746,104
21135,2961,-1990,272,2150,1103,164
21145,2812,-395,1529,1796,1282,158
21155,3180,-57,981,1913,1012,459
21165,3130,-1102,1106,2273,970,537
21175,3835,-1319,1402,2337,1110,279
21185,4000,-797,1233,2226,1136,182
21195,3877,275,1197,1853,1007,94
21205,3741,839,1318,1434,809,32
21215,3828,539,1252,873,569,23
21225,4177,13,983,501,375,76
21235,4547,-414,688,405,308,153
21245,4719,-614,537,439,319,262
21255,4647,-657,405,517,356,392
21265,4495,-687,339,653,377,506
21276,4407,-833,356,895,384,617
21286,4359,-869,291,1240,374,748
21296,4316,-805,351,1674,355,878
21306,4187,-630,468,2000,319,987
21316,4097,-261,638,2050,266,1082
21326,4034,162,705,1937,212,1142
21336,3997,429,840,1717,152,1177
21346,3922,510,903,1404,41,1237
21356,3850,501,867,1077,-81,1301
21366,3840,453,829,768,-176,1338
21376,3832,408,792,455,-264,1361
21386,3833,352,695,192,-337,1388
21396,3819,161,663,8,-403,1399
21406,3854,-92,656,-137,-446,1413
21416,3849,-245,594,-205,-496,1411
21426,3901,-368,543,-206,-532,1411
21436,3905,-423,537,-208,-542,1433
21446,3867,-419,484,-229,-547,1463
21456,3834,-398,404,-238,-562,1497
21466,3779,-394,369,-261,-580,1524
21477,3816,-407,390,-331,-601,1541
21487,3862,-465,352,-351,-624,1556
21497,3889,-516,340,-351,-637,1568
21507,3865,-523,340,-323,-656,1574
21517,3867,-559,336,-273,-689,1576
21527,3890,-585,308,-198,-736,1553
21537,4004,-605,367,-105,-772,1514
21547,4153,-603,396,-46,-803,1469
21557,4311,-628,446,1,-813,1402
21567,4438,-697,498,68,-808,1333
21577,4551,-729,457,143,-781,1253
21587,4669,-731,452,231,-728,1143
21597,4724,-785,485,333,-668,1062
21607,4732,-908,570,473,-603,977
21617,4667,-990,644,588,-526,904
21627,4535,-836,684,647,-438,839
21637,4392,-615,771,674,-377,768
21647,4308,-474,809,582,-361,716
21657,4337,-403,802,436,-346,680
21667,4429,-372,795,308,-314,596
21678,4461,-323,831,182,-302,518
21688,4484,-319,839,9,-319,467
21698,4476,-459,732,-136,-328,442
21708,4482,-710,677,-220,-313,361
21718,4447,-774,514,-271,-264,263
21728,4368,-642,281,-230,-193,181
21738,4318,-450,264,-128,-107,69
21748,4365,-273,360,-117,-8,-39
21758,4507,-210,462,-90,86,-137
21768,4716,-377,481,6,225,-218
21778,4832,-575,397,206,378,-301
21788,4842,-666,446,574,525,-447
21798,4933,-657,423,988,668,-638
21808,4696,-485,212,1267,744,-726
21818,4405,-96,248,1340,800,-868
21828,4193,228,28,1210,895,-1091
21838,4092,39,-182,912,982,-1334
21848,3960,-740,117,557,1073,-1575
21858,4031,-1664,808,458,1056,-1963
21868,3777,-1836,1461,443,1062,-2039
21879,3230,-1412,2326,275,946,-2062
21889,2577,-568,2832,-435,713,-1954
21899,2553,-607,2729,-1003,557,-2203
21909,2627,-1606,2482,-932,251,-2356
21919,2865,-2641,2113,230,51,-2370
21929,3229,-1791,1509,1245,-145,-2352
21939,3475,-426,999,2157,-541,-2342
21949,3569,479,569,1839,-1131,-2396
21959,3739,751,212,1325,-1571,-2363
21969,4168,413,331,603,-1768,-2311
21979,4494,587,422,-164,-1785,-2400
21989,4512,832,430,-618,-1867,-2508
21999,4718,1291,548,-1247,-1927,-2419
22009,4750,1302,155,-1922,-1956,-2159
22019,5081,931,-251,-2517,-1842,-2085
22029,5415,796,-553,-2874,-1494,-1952
22039,5426,563,-1094,-2979,-1286,-1923
22049,5399,-298,-1592,-2923,-1176,-1676
22059,5277,-1196,-2761,-2811,-948,-1564
22069,4924,-1513,-1889,-3270,-589,-1480
22080,5572,-682,-2403,-3284,-542,-1517
22090,5886,-1032,-1540,-3643,-322,-1468
22100,5846,-1305,-2655,-4487,100,-1421
22110,5388,-2874,-2481,-4509,764,-1261
22120,5700,-3437,-1336,-4396,981,-1237
22130,5113,-5950,-2387,-3479,1382,-832
22140,3970,-6517,-2306,-2148,1536,-924
22150,3637,-4309,-1218,-741,1479,-1185
22160,2627,-1939,-1514,265,1329,-1607
22170,3149,87,-491,454,999,-1664
22180,3591,711,198,-335,656,-1285
22190,4058,792,167,-1474,513,-1280
22200,4280,301,70,-2150,577,-1307
22210,4136,-283,134,-2561,549,-1284
22220,4094,-422,208,-2729,475,-1204
22230,4061,-322,235,-2729,384,-1144
22240,4043,-224,292,-2802,291,-1137
22250,4018,-198,276,-2965,161,-1193
22260,4470,-309,410,-3139,-65,-1421
22270,4787,-435,696,-3326,-49,-1262
22281,4380,-499,745,-3409,-71,-1242
22291,4384,-803,908,-3185,-176,-1186
22301,4197,-967,1039,-2910,-328,-1073
22311,4320,-1044,1085,-2692,-535,-918
22321,4408,-1077,1150,-2534,-633,-732
22331,4523,-1328,891,-2160,-744,-534
22341,4675,-1557,884,-1384,-879,-68
22351,4429,-1466,1059,-904,-898,406
22361,4360,-1269,1176,-804,-870,734
22371,4429,-1440,1451,-1018,-783,984
22381,4489,-1668,1527,-1413,-504,1035
22391,4636,-1586,1898,-1618,-219,1021
22401,4807,-1291,2103,-1844,14,1053
22411,4520,-1190,2204,-1860,141,1093
22421,4077,-1229,2181,-1745,105,1122
22431,3994,-1319,1994,-1543,0,1121
22441,4094,-1419,1763,-1166,-51,1112
22451,3996,-1443,1782,-677,-100,1129
22461,3761,-1393,1922,-280,-141,1097
22471,3727,-1362,2133,-56,-170,1011
22482,3895,-1412,2157,92,-196,887
22492,4135,-1383,2046,249,-243,791
22502,4244,-1221,1957,335,-238,675
22512,4294,-1092,1736,416,-230,594
22522,4309,-1165,1559,528,-224,599
22532,4234,-1296,1476,689,-220,637
22542,4051,-1357,1322,937,-234,673
22552,3837,-1342,1165,1190,-263,685
22562,3743,-1260,1075,1371,-260,703
22572,3663,-1136,1000,1493,-248,671
22582,3572,-1142,770,1744,-273,614
22592,3561,-1316,594,2082,-264,614
22602,3512,-1278,415,2469,-251,617
22612,3556,-1167,311,2934,-235,608
22622,3565,-968,364,3201,-204,685
22632,3527,-821,269,3372,-189,710
22642,3567,-869,35,3621,-154,677
22652,3690,-951,-94,4027,-88,686
22662,3843,-778,90,4230,37,790
22672,3893,-298,102,4161,211,854
22683,4014,42,299,4059,462,886
22693,4055,-75,279,3999,665,975
22703,3890,-406,211,3909,729,1110
22713,3915,-660,300,3937,818,1192
22723,4138,-872,402,4175,1071,1255
22733,4214,-948,556,4446,1285,1218
22743,4169,-610,1008,4444,1343,1095
22753,4018,-267,1701,3886,1181,1011
22763,3492,-192,2368,2993,768,1095
22773,2958,-177,2725,1599,339,1163
22783,2887,-459,2157,19,9,1035
22793,2880,-1136,1537,-1320,-562,793
22803,3360,-1994,2000,-2384,-1132,718
22813,3873,-1970,1192,-2894,-1446,586
22823,4487,-2406,793,-1921,-1337,541
22833,4675,-2447,807,-772,-1183,702
22843,4069,-909,225,409,-1231,798
22853,3060,1428,-1591,1371,-1457,811
22863,3122,2785,-2809,2316,-1578,916
22873,4763,-1823,-3828,4068,-1662,1655
22884,8464,-7225,-3401,4969,-577,2613
22894,8935,-4279,-2066,6141,1592,2349
22904,6124,3241,3648,8127,3235,1971
22914,2211,5618,8684,7303,2655,1829
22924,1170,5011,4952,3093,802,2208
22934,3126,2476,2064,1157,115,2211
22944,4595,-855,1444,1007,116,2253
22954,4972,-2152,1756,1958,351,2157
22964,4888,-1289,2105,2619,583,2027
22974,4617,-536,2419,2805,591,2206
22984,4553,-762,2317,2896,486,2468
22994,4477,-1671,1792,3271,310,2672
23004,4564,-2224,1278,4105,299,2755
23014,4426,-1850,1555,4775,351,2842
23024,4134,-1001,1942,5130,465,2921
23034,3850,-757,2498,4820,600,3054
23044,3457,-801,2528,4378,452,3033
23054,3301,-1195,2693,3965,397,3050
23064,2602,-1132,3020,3615,219,3043
23074,2056,-1320,3076,3278,2,2881
23085,1767,-1809,2671,2951,-212,2695
23095,1475,-2501,1904,2905,-486,2497
23105,1650,-3465,1556,3176,-561,2376
23115,1558,-3364,1099,3080,-616,2425
23125,1144,-3318,1066,3183,-703,2233
23135,944,-3659,810,3063,-934,2053
23145,724,-3953,338,3056,-1125,1907
23155,1201,-3964,-235,3087,-1073,1647
23165,459,-3481,-617,3462,-1011,1955
23175,642,-3291,-877,3670,-964,2150
23185,1193,-4148,-942,3950,-786,2423
23195,1873,-5619,-1055,3997,-455,2725
23205,2496,-6669,-667,4086,62,3159
23215,3025,-7021,57,3869,625,3452
23225,3535,-7162,621,3449,1086,3648
23235,3519,-7333,591,2889,1447,3880
23245,2563,-7649,791,2055,1449,4012
23255,1813,-8381,619,1144,1255,4200
23265,1604,-8921,499,372,1126,4435
23275,1618,-9289,567,224,881,4543
23285,1174,-9330,695,341,162,4632
23295,1719,-8234,-356,745,-559,4469
23305,2479,-8487,-745,1118,-1068,4898
23315,3818,-10632,-864,1219,-1408,5298
23325,5207,-10343,-43,464,-1199,5522
23336,5796,-10282,380,372,-1538,5543
23346,6372,-10888,646,405,-1419,6144
23356,6788,-10578,708,70,-1475,6463
23366,7252,-10874,722,33,-1466,6812
23376,7660,-10460,831,267,-1406,7209
23386,8046,-9863,1144,405,-1374,7529
23396,8238,-9464,1326,491,-1455,7769
23406,8533,-9091,1129,692,-1625,7950
23416,8689,-8654,907,949,-1875,8019
23426,8552,-7677,664,1173,-2264,7922
23436,8607,-6293,-21,1379,-2529,7806
23446,8991,-4681,-1132,1525,-2655,7667
23456,9133,-3035,-2122,1689,-2611,7441
23466,8938,-1100,-2878,1716,-2692,7050
23476,9201,365,-3208,2108,-2763,6628
23486,9106,1361,-2742,2206,-3056,6560
23496,9240,2053,-2097,2332,-3511,6127
23506,10202,2525,-1733,2554,-3951,5627
23516,11168,3949,-1965,2908,-4174,4949
23526,12054,5629,-1353,3462,-4158,4390
23536,12393,6888,-652,3939,-4153,4118
23546,11970,8135,-3,4102,-4170,3573
23556,11349,9421,338,3998,-4362,2543
23566,11338,10514,107,3490,-4562,1541
23576,11930,10926,-825,3152,-4536,545
23587,11973,10772,-1367,3133,-4508,-465
23597,12043,11904,-2771,3277,-4524,-1972
23607,11773,15380,-4074,3347,-4806,-3951
23617,11087,17792,-4831,2563,-5463,-5389
23627,11646,17932,-5318,148,-6415,-7306
23637,15872,15817,-6380,-2758,-7443,-9520
23647,23458,14044,-6838,-5810,-7614,-11614
23657,29698,7569,-5605,-8940,-7538,-12818
23667,-32768,3737,-4542,-11273,-5963,-14753
23677,-32768,-738,151,-13384,-4328,-15629
23687,-32768,-4211,1447,-15642,-2533,-16752
23697,-32768,-8146,1989,-17759,-900,-16767
23707,32522,-8255,587,-19571,1087,-16244
23717,26322,-5406,5099,-21170,1807,-15082
23727,32739,-30747,-20714,-337,4192,-9104
23737,2117,22057,26917,-8155,317,-11846
23747,8350,28018,-7887,-23656,-2293,-14742
23757,-32768,4176,-7321,-27205,1018,-7397
23767,32709,-18494,-4610,-24113,3338,-6630
23777,15941,-6497,-963,-19386,5599,-5321
23787,11335,11357,-1516,-19211,5148,-3895
23797,13707,12067,-5331,-21372,4087,-961
23807,12349,2912,-6927,-19778,3585,991
23817,13550,485,-4989,-16052,3850,1786
23827,14197,1650,-2991,-12125,4248,2525
23838,11891,2645,-1782,-8589,4503,2901
23848,11076,3940,-1581,-6183,4752,2818
23858,8972,4938,-1361,-4227,4427,2799
23868,7740,4430,-2401,-3045,3993,2775
23878,7462,3285,-3758,-2126,3444,2778
23888,6687,2689,-4501,-1212,2956,2683
23898,5727,2156,-5311,-508,2347,2851
23908,5101,1979,-5633,143,1760,2873
23918,4544,1828,-5398,611,1191,2870
23928,4165,1660,-5100,921,692,2879
23938,3823,1253,-4763,1131,275,2896
23948,3517,1001,-4490,1313,-45,2874
23958,3175,832,-4209,1478,-287,2842
23968,2868,688,-3973,1641,-462,2794
23978,2547,591,-3813,1797,-614,2731
23988,2252,520,-3704,1995,-722,2652
23998,2074,439,-3523,2199,-806,2574
24008,1893,250,-3371,2408,-822,2508
24018,1668,104,-3368,2615,-796,2397
24028,1524,-78,-3220,2821,-731,2277
24038,1335,-268,-2936,3083,-652,2142
24048,1167,-369,-2660,3368,-564,2004
24058,906,-280,-2404,3530,-482,1914
24068,564,-94,-1926,3451,-441,1825
24078,104,8,-1437,3140,-459,1716
24089,-420,-185,-1005,2945,-547,1536
24099,-927,-633,-576,2784,-599,1360
24109,-1358,-1030,-577,2663,-747,1235
24119,-1521,-1382,-424,2462,-919,1120
24129,-1344,-1658,-137,2369,-1116,964
24139,-966,-1756,233,2203,-1245,841
24149,-611,-1611,362,1829,-1316,726
24159,-525,-1537,735,1320,-1400,513
24169,-513,-1643,1100,960,-1399,244
24179,-658,-1717,1376,715,-1379,107
24189,-887,-1735,1841,409,-1418,72
24199,-1107,-1647,2211,97,-1443,-12
24209,-1222,-1691,2542,-43,-1457,-134
24219,-1240,-1471,2663,-305,-1482,-234
24229,-1300,-800,2483,-619,-1646,-281
24239,-1351,-548,2027,-840,-1845,-411
24249,-1177,-847,1937,-1357,-2056,-646
24259,-812,-987,1614,-1963,-2172,-812
24269,-474,-1273,1532,-2108,-2283,-923
24279,-89,-2075,1946,-2167,-2403,-1031
24290,149,-2675,2084,-2520,-2511,-1145
24300,173,-2710,1055,-2624,-2555,-1355
24310,251,-2922,863,-2481,-2695,-1546
24320,466,-3324,1520,-2658,-2807,-1571
24330,703,-3747,2109,-2851,-2807,-1523
24340,918,-4147,2254,-2903,-2745,-1409
24350,1116,-4409,2281,-3028,-2741,-1112
24360,1187,-4652,2196,-3215,-2656,-996
24370,1451,-5105,1709,-3322,-2506,-1040
24380,1853,-5728,1813,-3232,-2312,-849
24390,1783,-5947,1790,-3252,-2036,-440
24400,1673,-5905,1438,-2993,-1891,-520
24410,1774,-5922,1411,-2989,-1742,-491
24420,1946,-5817,1022,-3106,-1645,-441
24430,2486,-6023,814,-3076,-1542,-472
24440,2962,-6289,720,-3026,-1375,-450
24450,3344,-6428,788,-2936,-1207,-424
24460,3612,-6455,834,-2889,-1053,-357
24470,3545,-6366,745,-2890,-828,-300
24480,3378,-6236,478,-2892,-650,-265
24491,3090,-6006,434,-2871,-517,-143
24501,2745,-5560,355,-2883,-452,-63
24511,2479,-5161,148,-2876,-447,-36
24521,2261,-4983,57,-2834,-460,13
24531,2095,-4765,-41,-2808,-481,10
24541,2124,-4555,-125,-2760,-481,-3
24551,2231,-4522,15,-2688,-471,17
24561,2375,-4699,28,-2514,-437,23
24571,2476,-4822,54,-2271,-319,7
24581,2467,-4675,62,-1999,-157,-33
24591,2495,-4355,91,-1698,-18,-58
24601,2532,-3993,70,-1422,110,-110
24611,2567,-3636,-78,-1191,256,-206
24621,2539,-3355,-301,-942,413,-327
24631,2526,-3210,-443,-667,579,-444
24641,2500,-2995,-411,-440,726,-579
24651,2625,-2802,-136,-268,852,-768
24661,2649,-2648,-331,-52,1003,-984
24671,2770,-2615,-15,237,1117,-1162
24681,2751,-2475,161,337,1211,-1350
24692,2743,-2362,148,454,1276,-1642
24702,2787,-2454,117,473,1343,-1895
24712,2838,-2507,-45,399,1452,-2148
24722,2901,-2390,-147,297,1630,-2425
24732,3009,-2105,-305,232,1870,-2639
24742,3070,-1855,-406,310,2100,-2762
24752,3246,-1556,-90,356,2177,-2828
24762,3578,-1061,279,125,2239,-2914
24772,4401,-430,646,-207,2056,-2753
24782,5083,-4,183,-720,1980,-2360
24792,5533,31,-948,-843,2174,-2054
24802,5854,-622,-1021,-678,2578,-1705
24812,5919,-1781,-412,-436,3223,-1405
24822,5686,-3285,714,-196,3460,-1400
24832,5160,-3921,363,-10,3026,-1570
24842,4515,-1815,-739,-35,2487,-1810
24852,4153,1076,-1310,66,1991,-2002
24862,4326,2558,-1750,-594,1588,-2086
24872,4902,2858,-2253,-1709,1377,-2261
24882,5319,1925,-2056,-2632,1416,-2448
24893,5346,705,-1561,-3204,1464,-2481
24903,5434,-39,-866,-3436,1465,-2454
24913,5711,-166,-380,-3595,1611,-2389
24923,5827,5,-220,-3776,1836,-2274
24933,5787,260,-432,-4217,2062,-2181
24943,5680,220,-774,-4715,2279,-2122
24953,5492,-248,-1016,-5152,2460,-2034
24963,5391,-635,-1227,-5600,2587,-1951
24973,5458,-842,-1421,-5830,2651,-1882
24983,5574,-1020,-1589,-6007,2703,-1755
24993,5581,-1189,-1541,-6191,2753,-1620
25003,5500,-1224,-1621,-6394,2774,-1514
25013,5387,-1166,-1430,-6497,2772,-1365
25023,5353,-1170,-1292,-6626,2726,-1201
25033,5376,-1293,-1151,-6740,2676,-1040
25043,5416,-1374,-1211,-6867,2643,-856
25053,5456,-1446,-1243,-6922,2648,-680
25063,5437,-1535,-1344,-6971,2634,-489
25073,5341,-1576,-1506,-6924,2607,-262
25083,5226,-1705,-1652,-6807,2575,-44
25094,5100,-1844,-1787,-6604,2546,163
25104,4942,-1905,-1743,-6289,2505,324
25114,4757,-1893,-1696,-5862,2454,416
25124,4560,-1627,-1482,-5510,2390,519
25134,4396,-1366,-1334,-5188,2341,583
25144,4301,-1221,-1136,-4984,2304,616
25154,4280,-1062,-1034,-4884,2276,639
25164,4292,-832,-1011,-4800,2208,664
25174,4288,-743,-1102,-4666,2120,697
25184,4264,-793,-1013,-4504,2051,733
25194,4322,-761,-1015,-4384,1992,743
25204,4549,-602,-1052,-4245,1928,756
25214,4705,-418,-1115,-4111,1863,747
25224,4715,-343,-1215,-3945,1749,708
25234,4655,-285,-1329,-3732,1636,672
25244,4533,-199,-1461,-3452,1518,615
25254,4503,-77,-1269,-3130,1413,501
25264,4125,222,-1523,-2973,1292,352
25274,4059,374,-1345,-2739,1130,174
25284,3972,321,-1246,-2486,985,17
25294,4035,201,-1206,-2153,838,-163
25304,4067,77,-1147,-1767,694,-328
25314,3857,-11,-1127,-1393,552,-464
25324,3585,-29,-1078,-1073,436,-603
25334,3420,-105,-1071,-764,371,-729
25345,3362,-348,-1072,-382,338,-825
25355,3270,-598,-1047,41,338,-917
25365,3213,-596,-958,468,333,-1039
25375,3192,-486,-863,931,297,-1152
25385,3210,-516,-800,1347,224,-1225
25395,3237,-682,-770,1721,112,-1323
25405,3314,-868,-798,2075,20,-1392
25415,3352,-944,-836,2349,-75,-1447
25425,3354,-1020,-818,2565,-181,-1452
25435,3360,-1073,-775,2707,-282,-1460
25445,3468,-1121,-801,2803,-400,-1458
25455,3742,-1228,-886,2826,-542,-1437
25465,4023,-1449,-1017,2841,-681,-1403
25475,4284,-1799,-1074,2892,-810,-1373
25485,4492,-2116,-1117,2974,-963,-1342
25495,4695,-2403,-1124,3133,-1110,-1312
25505,4810,-2615,-1074,3320,-1261,-1274
25515,4793,-2721,-1036,3555,-1436,-1191
25525,4755,-2823,-803,3755,-1657,-1117
25535,4712,-2759,-664,3815,-1856,-989
25545,4668,-2626,-651,3933,-2045,-846
25555,4766,-2814,-249,3969,-2236,-682
25565,4756,-2886,-4,3861,-2367,-504
25575,4692,-2623,86,3831,-2493,-394
25585,4700,-2431,201,3874,-2631,-302
25596,4687,-2280,175,3856,-2786,-198
25606,4748,-2138,157,3880,-2962,-123
25616,4883,-1992,201,3916,-3119,-57
25626,5096,-1933,248,3970,-3302,12
25636,5385,-1921,121,4033,-3462,84
25646,5795,-1984,112,4170,-3556,170
25656,6087,-2249,457,4296,-3570,304
25666,6089,-2386,595,4454,-3507,540
25676,6104,-1995,614,4512,-3395,750
25686,5966,-1215,411,4412,-3249,960
25696,5692,-710,334,4161,-3120,1190
25706,5819,-829,20,3626,-3022,1501
25716,5376,-611,-346,3513,-2746,1584
25726,4844,-599,-840,3255,-2314,1764
25736,4965,-1422,-625,3399,-2040,2097
25746,4295,-1698,-900,3710,-1578,2095
25756,4064,-1358,-1396,4351,-1245,1970
25766,3887,-1143,-1335,5134,-1030,1839
25776,3683,-796,-1665,5958,-840,1892
25786,3724,-644,-1679,7188,-760,1909
25796,3802,-327,-1076,7521,-559,1913
25806,3756,126,-1094,7594,-327,1675
25816,3864,236,-551,7440,-21,1440
25826,3740,11,-273,7358,326,1320
25836,3843,-13,828,6951,654,1325
25847,3754,785,1239,5816,834,1531
25857,3575,1803,1985,4401,805,1695
25867,3153,2220,2188,2643,662,1612
25877,2869,1591,1974,983,408,1461
25887,2687,-16,1278,-71,54,1418
25897,2684,-1652,417,-415,-323,1372
25907,2941,-2762,-321,-30,-615,1242
25917,3355,-3324,-821,846,-679,1198
25927,3590,-3425,-1313,1921,-547,1150
25937,3868,-3251,-1157,2789,-316,1039
25947,3981,-2419,-1007,3083,65,998
25957,3958,-1162,-235,2845,441,993
25967,3642,-212,471,2141,586,993
25977,3203,-192,1124,1322,479,876
25987,3033,-523,1261,366,389,758
25997,2864,-1310,1285,61,200,678
26007,3090,-2221,1100,192,181,456
26017,3169,-2565,769,568,215,390
26027,3131,-2570,651,1110,228,261
26037,3133,-2119,665,1326,330,52
26047,2821,-1563,724,1553,474,15
26057,2398,-1474,1188,1460,550,97
26067,1977,-1314,1223,1030,411,145
26077,2058,-1112,1104,650,241,-11
26087,2503,-1212,1202,306,162,-134
26098,2711,-1534,1170,-17,126,-139
26108,2710,-1826,977,-130,115,-190
26118,2650,-2073,788,-8,76,-226
26128,2798,-2153,1175,165,142,-191
26138,2946,-2046,1107,431,325,-169
26148,3081,-2053,1699,413,620,-157
26158,2829,-1550,2146,50,738,-170
26168,2387,-2122,2174,-126,453,-199
26178,2448,-2892,2077,-276,282,-205
26188,2675,-2825,1713,-157,299,-224
26198,2666,-2367,1592,46,343,-309
26208,2496,-2025,1602,111,258,-348
26218,2387,-2070,1553,-16,123,-336
26228,2442,-2290,1501,-83,68,-327
26238,2479,-2419,1390,-114,24,-346
26248,2525,-2450,1376,-76,-10,-378
26258,2530,-2439,1556,-66,-34,-390
26268,2560,-2470,1786,-26,-45,-399
26278,2611,-2502,2065,-44,-80,-427
26288,2729,-2522,2143,-52,-130,-476
26299,2861,-2630,2127,21,-187,-541
26309,3004,-2632,2077,42,-182,-573
26319,3076,-2600,2018,84,-167,-594
26329,3210,-2795,1966,160,-176,-608
26339,3343,-3006,1991,185,-152,-602
26349,3436,-3041,2104,185,-107,-610
26359,3420,-2975,2115,101,-105,-580
26369,3389,-3024,2149,38,-112,-545
26379,3325,-3064,2098,-1,-111,-481
26389,3243,-2961,2061,-31,-111,-396
26399,3208,-2770,1961,-52,-110,-322
26409,3317,-2625,1971,-70,-106,-253
26419,3483,-2493,1822,-15,-63,-190
26429,3627,-2523,1862,132,-16,-142
26439,3694,-2457,1871,216,66,-94
26449,3704,-2373,2011,254,104,-65
26459,3683,-2290,1962,234,125,-46
26469,3660,-2303,1955,217,145,-27
26479,3543,-2298,1883,160,134,-16
26489,3427,-2223,1837,59,113,-10
26500,3371,-2134,1674,-28,85,-9
26510,3378,-2118,1537,-57,58,12
26520,3402,-2009,1356,-9,71,45
26530,3390,-1920,1223,68,104,85
26540,3327,-1903,1180,139,145,125
26550,3297,-1982,1255,183,174,151
26560,3289,-1955,1311,188,187,163
26570,3294,-1918,1306,170,182,171
26580,3318,-1895,1289,131,153,173
26590,3348,-1902,1286,112,133,175
26600,3392,-1842,1248,61,115,177
26610,3497,-1726,1071,13,117,171
26620,3651,-1696,884,16,152,173
26630,3736,-1832,780,58,215,190
26640,3775,-1886,764,124,277,197
26650,3782,-1850,837,138,345,192
26660,3735,-1768,871,81,384,173
26670,3676,-1772,878,-28,402,147
26680,3631,-1856,858,-132,412,126
26690,3632,-1834,856,-242,431,105
26701,3611,-1741,824,-369,453,70
26711,3581,-1733,695,-467,464,38
26721,3608,-1796,645,-519,505,21
26731,3577,-1879,604,-475,545,12
26741,3495,-1937,722,-444,591,1
26751,3412,-1995,869,-420,623,-16
26761,3363,-2021,986,-431,634,-32
26771,3325,-2042,1058,-469,638,-59
26781,3290,-2093,1097,-538,618,-92
26791,3308,-2103,1084,-595,609,-111
26801,3303,-2065,1005,-642,592,-123
26811,3278,-2126,986,-693,574,-149
26821,3289,-2207,967,-727,576,-162
26831,3280,-2231,912,-746,572,-183
26841,3238,-2277,946,-733,569,-189
26851,3203,-2372,1046,-703,568,-200
26861,3152,-2376,1160,-703,570,-212
26871,3145,-2339,1281,-699,561,-236
26881,3151,-2319,1341,-720,559,-259
26891,3109,-2271,1325,-737,557,-291
26902,3055,-2304,1337,-747,558,-320
26912,3044,-2343,1330,-752,564,-351
26922,3016,-2299,1316,-770,584,-371
26932,3003,-2302,1294,-792,587,-396
26942,2937,-2387,1308,-794,590,-426
26952,2914,-2448,1315,-792,591,-454
26962,2856,-2433,1354,-781,597,-482
26972,2831,-2402,1429,-795,588,-509
26982,2814,-2390,1451,-835,592,-530
26992,2814,-2443,1423,-863,578,-571
27002,2813,-2474,1406,-887,575,-595
27012,2835,-2448,1377,-888,579,-626
27022,2805,-2443,1313,-888,574,-644
27032,2813,-2513,1277,-854,571,-658
27042,2760,-2589,1297,-823,578,-670
27052,2723,-2574,1350,-785,576,-680
27062,2662,-2560,1435,-781,560,-687
27072,2596,-2536,1467,-788,535,-686
27082,2563,-2578,1522,-799,505,-688
27092,2574,-2542,1494,-785,477,-691
27103,2529,-2556,1528,-772,449,-706
27113,2515,-2524,1488,-762,427,-717
27123,2500,-2530,1500,-752,404,-735
27133,2485,-2552,1478,-728,382,-746
27143,2493,-2602,1476,-686,366,-747
27153,2522,-2628,1476,-638,354,-738
27163,2473,-2635,1509,-611,343,-728
27173,2533,-2669,1549,-580,344,-718
27183,2567,-2659,1551,-569,342,-722
27193,2648,-2663,1569,-594,345,-725
27203,2720,-2696,1584,-619,339,-722
27213,2772,-2749,1631,-657,332,-724
27223,2781,-2743,1612,-680,325,-723
27233,2802,-2769,1640,-708,314,-716
27243,2837,-2746,1565,-726,305,-701
27253,2850,-2759,1574,-700,294,-670
27263,2854,-2831,1588,-634,291,-646
27273,2866,-2825,1619,-521,278,-601
27283,2837,-2720,1709,-423,275,-569
27293,2832,-2655,1772,-367,250,-552
27304,2814,-2599,1803,-343,220,-530
27314,2869,-2585,1774,-294,186,-508
27324,3002,-2569,1776,-240,162,-503
27334,3167,-2599,1882,-197,124,-528
27344,3423,-2623,1980,-198,84,-570
27354,3608,-2612,1940,-202,41,-623
27364,3647,-2519,1845,-229,20,-628
27374,3603,-2412,1753,-272,11,-602
27384,3653,-2465,1736,-301,12,-572
27394,3755,-2624,1870,-270,22,-573
27404,3804,-2650,1957,-194,28,-597
27414,3865,-2518,2037,-152,23,-603
27424,3890,-2372,2003,-119,8,-602
27434,3921,-2270,1961,-119,-5,-588
27444,3889,-2201,1935,-108,-8,-566
27454,3800,-2200,1865,-79,-11,-540
27464,3748,-2184,1864,-58,-2,-515
27474,3664,-2084,1787,-29,-2,-478
27484,3600,-2069,1716,19,-17,-456
27494,3542,-2019,1711,62,-28,-404
27505,3425,-1846,1677,110,-37,-356
27515,3365,-1682,1679,143,-48,-296
27525,3306,-1486,1642,140,-37,-214
27535,3207,-1338,1605,151,-24,-140
27545,3125,-1217,1485,187,-4,-76
27555,3090,-1260,1376,248,21,6
27565,3002,-1241,1255,316,83,56
27575,2918,-908,1255,269,154,90
27585,2876,-790,1090,149,220,84
27595,2849,-702,1147,-35,268,43
27605,2808,-735,1182,-183,364,39
27615,2958,-1053,1199,-210,470,50
27625,3032,-1194,1219,-89,544,22
27635,2989,-1431,1295,30,588,28
27645,3081,-1575,1086,70,630,3
27655,3331,-2500,1258,104,653,22
27665,2794,-1728,1304,-390,755,-10
27675,3245,-431,1519,-482,856,-152
27685,3176,-879,1425,-880,675,-108
27695,3263,-1681,1355,-937,702,-111
27706,3476,-1546,1212,-792,756,-82
27716,3458,-1376,1274,-580,756,-73
27726,3384,-1347,1213,-354,795,-56
27736,3312,-1258,1462,-279,765,-82
27746,3163,-1141,1529,-299,731,-50
27756,3216,-1538,1560,-295,665,-35
27766,3242,-1529,1549,-226,646,-58
27776,3047,-1389,1566,-209,552,-81
27786,2964,-1369,1619,-302,448,-72
27796,3031,-1469,1606,-400,365,-66
27806,3106,-1610,1636,-445,302,-52
27816,3088,-1630,1706,-432,277,-34
27826,3099,-1554,1785,-417,258,-32
27836,3063,-1504,1888,-387,237,-30
27846,3061,-1480,1949,-305,214,-46
27856,2996,-1408,2026,-207,201,-52
27866,2898,-1371,2076,-155,153,-73
27876,2800,-1467,2096,-159,91,-69
27886,2761,-1671,2115,-149,32,-52
27896,2658,-1808,2108,-128,-43,-27
27907,2591,-1912,2073,-97,-130,-11
27917,2568,-1981,2058,-25,-214,27
27927,2567,-2083,2050,64,-296,76
27937,2590,-2144,2025,155,-364,119
27947,2605,-2016,2074,230,-418,173
27957,2509,-1840,2121,237,-486,227
27967,2493,-1887,2165,217,-561,272
27977,2583,-2010,2150,241,-611,298
27987,2640,-1932,2163,315,-644,319
27997,2662,-1816,2148,351,-668,346
28007,2705,-1940,2180,353,-708,365
28017,2806,-1908,1989,366,-720,364
28027,2875,-1989,1959,346,-756,388
28037,3011,-2022,1919,367,-774,391
28047,3173,-2055,1924,349,-784,416
28057,3298,-2087,1963,334,-809,429
28067,3346,-2184,1945,333,-849,427
28077,3504,-2254,1895,373,-911,417
28087,3676,-2201,1803,440,-957,382
28097,3747,-2111,1724,480,-995,350
28108,3831,-2107,1645,518,-1034,344
28118,3976,-2242,1573,538,-1073,345
28128,4080,-2300,1493,619,-1088,315
28138,4169,-2393,1428,781,-1113,269
28148,4280,-2491,1494,970,-1105,250
28158,4335,-2445,1572,1102,-1072,220
28168,4382,-2383,1524,1185,-1055,198
28178,4427,-2410,1476,1241,-1026,171
28188,4524,-2342,1346,1300,-965,134
28198,4513,-2222,1240,1336,-900,91
28208,4457,-2060,1148,1342,-818,62
28218,4343,-1955,1047,1310,-717,65
28228,4106,-1879,929,1243,-607,75
28238,3920,-1798,847,1152,-512,81
28248,3721,-1854,685,1053,-424,122
28258,3555,-1876,621,926,-327,150
28268,3327,-1838,600,779,-254,174
28278,3160,-1897,642,657,-226,193
28288,3045,-1974,614,591,-220,224
28298,2973,-2048,611,632,-220,238
28309,2922,-2081,621,752,-207,240
28319,2904,-1931,653,861,-200,239
28329,2865,-1813,595,897,-215,228
28339,2908,-1901,533,922,-217,204
28349,2933,-1967,481,944,-213,199
28359,2892,-1922,514,910,-196,179
28369,2921,-1930,500,846,-183,154
28379,2929,-2013,495,778,-170,141
28389,2937,-2133,464,734,-178,126
28399,2994,-2257,470,736,-177,125
28409,3036,-2337,457,738,-181,129
28419,3080,-2384,413,776,-216,129
28429,3147,-2357,403,830,-238,140
28439,3172,-2173,444,827,-254,141
28449,3160,-2132,449,806,-293,135
28459,3262,-2232,523,750,-299,173
28469,3295,-2502,534,834,-305,191
28479,3238,-2347,525,844,-311,186
28489,3246,-2055,612,793,-333,188
28499,3191,-2060,630,699,-382,207
28510,3256,-2283,591,683,-411,213
28520,3332,-2372,593,740,-421,230
28530,3380,-2409,691,817,-422,268
28540,3372,-2439,723,844,-442,289
28550,3437,-2380,724,843,-451,308
28560,3428,-2269,753,782,-473,343
28570,3402,-2320,754,713,-507,352
28580,3463,-2462,745,680,-526,366
28590,3440,-2481,763,684,-555,379
28600,3389,-2454,842,717,-574,385
28610,3369,-2382,895,738,-620,398
28620,3373,-2388,915,749,-669,421
28630,3353,-2410,899,752,-724,458
28640,3335,-2505,870,793,-788,502
28650,3398,-2622,873,870,-829,553
28660,3392,-2653,899,940,-848,589
28670,3379,-2691,926,997,-864,613
28680,3378,-2665,1004,1027,-895,626
28690,3405,-2605,1068,1079,-922,630
28700,3396,-2503,1100,1142,-954,638
28711,3374,-2383,1116,1182,-985,641
28721,3349,-2267,1041,1193,-1034,665
28731,3477,-2325,1018,1300,-1029,676
28741,3394,-2032,1031,1342,-1043,636
28751,3285,-1734,1063,1345,-1138,587
28761,3370,-2012,937,1262,-1213,649
28771,3785,-2513,920,1499,-1094,640
28781,3709,-1964,1118,1644,-1018,606
28791,3517,-1376,1217,1687,-1055,558
28801,3452,-1627,1184,1622,-1132,596
28811,3684,-1970,1010,1654,-1155,598
28821,3781,-1974,927,1778,-1136,572
28831,3703,-1774,930,1834,-1117,566
28841,3697,-1704,917,1837,-1117,581
28851,3719,-1829,852,1832,-1110,589
28861,3729,-2011,858,1880,-1085,606
28871,3726,-2105,888,1933,-1050,621
28881,3769,-2152,901,2011,-1033,657
28891,3823,-2221,982,2114,-1016,696
28901,3775,-2150,967,2209,-959,694
28912,3732,-1986,978,2244,-904,697
28922,3753,-1884,875,2281,-877,696
28932,3712,-1887,803,2248,-865,678
28942,3689,-1932,730,2289,-837,668
28952,3762,-1997,642,2369,-798,662
28962,3742,-2046,711,2525,-722,629
28972,3606,-2153,766,2655,-681,633
28982,3528,-2302,797,2789,-631,640
28992,3518,-2474,818,2870,-616,674
29002,3444,-2494,842,2851,-634,701
29012,3423,-2341,852,2634,-637,680
29022,3398,-2240,805,2353,-638,659
29032,3322,-2363,863,2049,-667,671
29042,3350,-2427,918,1834,-648,691
29052,3362,-2271,981,1699,-607,672
29062,3266,-2331,1131,1699,-595,648
29072,3145,-2480,1165,1682,-581,673
29082,3051,-2458,1281,1635,-583,674
29092,3104,-2582,1318,1671,-602,701
29102,3333,-2373,1362,1796,-563,609
29113,3148,-2386,1525,1983,-584,566
29123,3026,-2898,1483,2258,-660,564
29133,3247,-3108,1463,2608,-671,535
29143,3304,-2860,1512,2820,-671,474
29153,3207,-2571,1524,2828,-771,516
29163,3034,-2232,1364,2515,-862,659
29173,2809,-2386,1241,2426,-985,742
29183,2874,-3104,1437,2450,-1050,894
29193,2956,-3594,1753,2436,-1041,1004
29203,2926,-3485,2011,2324,-1081,1036
29213,2759,-3262,2230,2332,-1203,1020
29223,2623,-3488,2385,2431,-1328,1074
29233,2516,-3585,2538,2420,-1470,1204
29243,2560,-3379,2572,2248,-1590,1376
29253,2752,-3499,2369,2171,-1613,1640
29263,2827,-3880,1886,2346,-1477,1779
29273,2633,-4518,1663,2757,-1348,1831
29283,2253,-4396,1281,3123,-1303,1835
29293,2682,-3796,966,3686,-1222,1806
29303,3128,-3594,1312,4063,-1134,2073
29314,2750,-3411,1476,3887,-1162,2143
29324,2500,-2807,1164,3526,-1262,1996
29334,2813,-2774,1045,3452,-1286,1936
29344,2639,-3191,1199,3432,-1263,2006
29354,2295,-3583,1068,3438,-1286,1909
29364,2323,-3868,856,3466,-1240,1841
29374,2399,-3633,709,3502,-1150,1778
29384,2174,-3139,737,3572,-1050,1909
29394,1701,-3552,790,3485,-1085,2067
29404,1421,-4078,296,3234,-1164,2206
29414,1063,-4803,-30,2993,-1218,2293
29424,447,-5753,-538,2623,-1402,2384
29434,-177,-6926,-1902,2388,-1657,2627
29444,-372,-8729,-2711,2620,-1758,3056
29454,-509,-10070,-2991,2801,-1722,3739
29464,-268,-10950,-3194,3014,-1669,4344
29474,382,-11290,-3618,2785,-1728,5086
29484,993,-11567,-4340,2385,-1787,5701
29494,1934,-11809,-5029,1924,-1829,6275
29504,2924,-11934,-5872,1834,-1886,6816
29515,3953,-11896,-6041,1924,-1907,7280
29525,5141,-11757,-5891,2178,-1954,7574
29535,6149,-11633,-5399,2494,-1960,7914
29545,6596,-11328,-4761,2621,-2074,8121
29555,6919,-11283,-4241,2713,-2182,8270
29565,7206,-11030,-3670,2687,-2319,8354
29575,7652,-10874,-3602,2527,-2507,8399
29585,8214,-10639,-3694,2368,-2665,8411
29595,8675,-10384,-3837,2369,-2801,8306
29605,9066,-9861,-3576,2302,-2997,8133
29615,9331,-8623,-3757,2348,-3197,7745
29625,9602,-7114,-3738,2449,-3241,7296
29635,9981,-4850,-4314,2525,-3228,6812
29645,9690,-1596,-4524,2468,-3221,6297
29655,9023,1840,-4329,2274,-3351,5717
29665,8335,3939,-3846,2180,-3579,5314
29675,7655,4897,-3160,2048,-3950,4887
29685,7957,5223,-2840,2139,-4320,4170
29695,9062,5068,-2624,2535,-4490,3464
29705,10437,5229,-2057,2947,-4467,2738
29716,11509,6594,-1383,3379,-4406,2085
29726,11678,8040,-345,3672,-4375,1516
29736,11567,8776,323,3396,-4501,969
29746,11510,8949,10,2904,-4596,402
29756,11331,9495,-462,2306,-4595,-284
29766,11050,9790,-1360,1835,-4507,-1042
29776,10941,9987,-2257,1360,-4644,-2048
29786,11875,10667,-4121,1029,-4955,-3574
29796,21844,15639,30203,-262,-1215,-3824
29806,10083,14716,12799,-3745,-4046,-8126
29816,6620,11430,-17903,-7862,-6429,-9089
29826,29351,8878,-1456,317,-2673,-11734
29836,21380,17718,-5638,-5811,-4432,-10719
29846,25645,8158,-5147,-10663,-4415,-13067
29856,-32768,4935,-6224,-13493,-2830,-14386
29866,-32768,-1448,-9827,-18040,-2534,-14709
29876,-32768,-9633,-16947,-22149,-375,-14791
29886,-32768,-17928,-22404,-25300,2247,-13536
29896,30959,-21190,-23540,-26800,4330,-12477
29906,23853,-19891,-17605,-26720,6133,-10826
29917,-178,-7993,-32768,-24065,-7795,-13587
29927,18695,-20418,-27668,-9625,4750,-2336
29937,32026,-30470,9585,1600,10084,-1167
29947,-3902,10823,25548,-2605,8664,-11845
29957,-5433,31071,825,-5274,7486,-9935
29967,14789,15418,687,-11681,5461,-7707
29977,12367,5829,1480,-14302,3424,-6481
29987,11051,4737,-1172,-16305,3497,-5998
29997,11380,3190,-2865,-16143,3722,-4347
30007,9923,1786,-2006,-15250,3764,-2840
30017,8213,1749,-1091,-14309,3561,-1822
30027,7766,1757,-1297,-13616,3166,-892
30037,7812,429,-1657,-12195,2780,134
30047,7357,-543,-940,-10112,2462,1066
30057,6546,79,-52,-8207,2109,1750
30067,5695,1525,247,-6919,1736,2249
30077,5056,1330,-1014,-5626,1490,3092
30087,5522,203,95,-4432,1387,3198
30097,4750,831,51,-4305,1120,2946
30107,4326,1048,-418,-4158,1042,2820
30118,3781,118,-634,-3553,863,2851
30128,3459,-387,-841,-2855,809,2833
30138,3270,-435,-1020,-2311,756,2820
30148,3141,-238,-1332,-1742,750,2692
30158,3027,-111,-1360,-1005,731,2572
30168,2742,108,-1116,-366,661,2443
30178,2507,350,-1049,151,549,2250
30188,2468,431,-1100,525,389,2063
30198,2326,418,-1295,820,265,1938
30208,2094,397,-1472,1027,121,1796
30218,1859,282,-1623,1169,-28,1634
30228,1629,138,-1907,1292,-148,1469
30238,1396,28,-1983,1411,-253,1338
30248,1216,23,-2029,1481,-376,1177
30258,1030,-124,-2086,1594,-501,1021
30268,838,-374,-1982,1693,-612,888
30278,696,-556,-1887,1749,-699,775
30288,585,-633,-1762,1785,-767,658
30298,517,-663,-1661,1825,-847,576
30308,470,-721,-1485,1722,-931,524
30318,323,-892,-1556,1591,-991,391
30328,204,-1096,-1489,1398,-1054,223
30338,58,-1269,-1500,1185,-1113,83
30348,-89,-1556,-1506,1101,-1187,-84
30358,-217,-1893,-1407,1012,-1280,-234
30369,-330,-2102,-1347,991,-1341,-354
30379,-331,-2047,-877,923,-1478,-380
30389,-479,-2133,-978,894,-1473,-477
30399,-515,-2506,-832,871,-1595,-628
30409,-485,-2959,-564,658,-1697,-696
30419,-468,-3495,-507,633,-1685,-876
30429,-383,-3889,-473,621,-1749,-1177
30439,-309,-4088,-541,732,-1653,-1236
30449,-328,-4023,-116,946,-1629,-1212
30459,-357,-3633,151,1004,-1667,-1304
30469,-255,-3463,561,1269,-1724,-1348
30479,-78,-3793,1207,1462,-1718,-1339
30489,96,-4218,1697,1469,-1776,-1334
30499,344,-4572,2066,1445,-1883,-1269
30509,600,-4783,2446,1561,-1866,-1137
30519,821,-4853,2496,1685,-1781,-1044
30529,962,-4876,2524,1740,-1686,-921
30539,848,-4654,2415,1706,-1657,-760
30549,669,-4696,2608,1660,-1649,-696
30559,575,-4485,2673,1512,-1653,-698
30569,745,-4128,2844,1545,-1650,-667
30579,920,-3901,3331,1554,-1703,-537
30589,989,-3902,3323,1681,-1758,-443
30599,998,-4068,3398,1661,-1795,-357
30609,918,-4000,3101,1482,-1897,-283
30620,873,-3680,2949,1174,-2025,-254
30630,923,-3323,2882,748,-2122,-254
30640,927,-3453,2837,562,-2284,-261
30650,1220,-3827,2658,552,-2318,-264
30660,1708,-4109,2219,639,-2195,-174
30670,1967,-4272,2105,859,-1967,-104
30680,2317,-4241,2291,1019,-1691,-207
30690,2801,-3854,926,1490,-1267,-370
30700,3715,-3603,1404,2118,-651,-208
30710,4020,-3039,1078,2272,-25,6
30720,4366,-2575,1281,2474,672,-202
30730,4418,-1884,2499,2607,1305,-394
30740,3854,-2075,3835,2509,1080,-347
30750,3524,-2286,3717,2179,704,-287
30760,2643,-3536,5107,2694,457,-331
30770,1415,-2973,5529,2575,149,-460
30780,990,-1166,4972,2293,-253,-434
30790,353,-937,4437,1549,-847,-870
30800,665,-2846,3342,2161,-1371,-942
30810,2339,-2799,3271,2649,-1252,-760
30820,1412,-1554,3361,3717,-1920,-925
30830,1726,-824,3090,4261,-2188,-705
30840,2049,-402,2253,4351,-2630,-484
30850,2258,560,1584,3703,-2982,-688
30860,2315,2415,944,2620,-3496,-529
30871,2983,3580,1535,1683,-3824,-387
30881,3198,3477,3090,126,-3970,-59
30891,3185,-166,1004,-1307,-2930,-303
30901,7989,-5949,-1692,-997,-2719,331
30911,6561,-9954,754,272,-1249,1027
30921,6040,-1985,4050,3006,378,-1144
30931,3564,2236,7307,2990,636,-866
30941,2054,1943,5219,416,-95,-383
30951,3276,-718,1153,-880,-875,-167
30961,4894,-3058,-1337,-972,-1063,67
30971,5543,-3262,-1664,-414,-914,-173
30981,5290,-2918,379,731,-681,-200
30991,4286,-1714,2753,1220,-601,130
31001,3629,-273,3647,955,-718,336
31011,3975,211,3558,168,-907,382
31021,3756,-34,2584,-835,-1126,526
31031,3915,-577,1646,-1001,-1483,929
31041,3419,-1716,692,-1153,-1812,1047
31051,3578,-2407,129,-967,-2001,1128
31061,3908,-2653,234,-290,-2098,1264
31071,3978,-2256,855,164,-2041,1349
31081,3772,-1546,762,606,-1942,1334
31091,3474,-1433,765,1087,-1974,1283
31101,3277,-1681,329,1540,-2091,1294
31111,3147,-1686,-765,1982,-2126,1417
31122,3630,-2383,-522,2732,-2102,1434
31132,4210,-2750,-152,2818,-1640,1430
31142,4425,-2434,-254,3366,-910,1219
31152,4655,-2902,458,3862,-250,1092
31162,4400,-1299,280,3477,396,1153
31172,4032,458,426,3856,1105,906
31182,4106,-582,2664,2860,1246,1127
31192,3425,-1349,1620,1775,1148,1092
31202,3551,-2211,1807,2478,1183,522
31212,3512,-1819,2370,2853,1118,461
31222,2532,-847,3019,3114,941,557
31232,2027,98,3460,2489,383,470
31242,2094,-214,2719,1861,-129,379
31252,2435,-1123,1685,1360,-541,357
31262,2909,-1542,977,1266,-753,303
31272,3241,-1066,606,1444,-733,131
31282,3057,-423,818,1623,-738,46
31292,2896,-385,896,1611,-950,193
31302,2801,7,335,1379,-1136,252
31312,3166,1087,-463,1054,-1200,193
31322,3327,1736,-162,640,-1138,425
31332,3395,1257,-6,68,-933,489
31342,3570,493,-703,-240,-654,487
31352,3958,253,368,-663,-214,487
31362,4318,140,187,-1172,44,398
31373,4202,-687,821,-1700,458,399
31383,3768,-1116,917,-2029,704,244
31393,3607,-1482,1963,-2111,859,91
31403,3131,-1424,2178,-2220,743,-86
31413,3045,-1389,1056,-1751,271,-333
31423,2635,-1060,-160,-1058,-333,-282
31433,2031,-618,-422,-668,-565,-353
31443,2016,234,-338,-927,-757,-463
31453,2480,995,-210,-1603,-995,-508
31463,2888,631,-530,-1890,-1310,-541
31473,3407,-1331,-452,-1425,-1535,-396
31483,3902,-2736,-387,-304,-1530,-211
31493,4230,-2252,-261,741,-1334,-285
31503,4294,-345,225,1138,-1175,-468
31513,4210,788,737,767,-1198,-546
31523,4211,888,750,-18,-1318,-562
31533,4583,340,609,-715,-1365,-640
31543,5070,-8,209,-1153,-1308,-675
31553,5297,-249,-304,-1170,-1197,-656
31563,5410,-848,-491,-774,-1059,-638
31573,5416,-1357,-551,-233,-850,-596
31583,5420,-1486,-405,384,-632,-622
31593,5326,-953,-163,817,-468,-706
31603,5160,-117,56,1050,-385,-760
31613,4883,508,171,1022,-396,-765
31624,4884,732,45,800,-464,-726
31634,5120,333,93,633,-473,-627
31644,5361,-43,195,492,-454,-529
31654,5563,-376,595,474,-380,-513
31664,5603,-337,912,373,-373,-604
31674,5821,67,895,372,-344,-661
31684,5767,487,1016,270,-250,-503
31694,5826,1059,319,-126,-240,-346
31704,6119,1240,-179,-473,-126,-95
31714,6505,333,-446,-576,114,224
31724,6944,-853,-1400,-214,358,516
31734,7367,-720,-2501,1296,633,882
31744,8339,-1219,-888,2517,212,1435
31754,7976,2675,-700,4184,885,1392
31764,6146,5510,-2854,4081,638,1769
31774,6441,6009,1698,4037,249,1787
31784,5693,5268,2469,1907,-309,1852
31794,5519,4580,1657,1511,-443,1481
31804,5609,1068,2286,198,-746,1814
31814,5604,-1052,195,499,-871,2023
31824,6547,-3814,1411,1142,-755,1859
31834,6302,-3982,1470,1914,-683,1491
31844,6109,-2939,1805,2774,-434,1500
31854,5057,-2238,2489,3144,-206,1617
31864,4031,-1891,2813,2574,-168,1685
31875,4406,-1516,4438,1429,-250,1459
31885,3022,-1605,3834,751,-682,1174
31895,3838,-2523,2659,862,-841,1157
31905,3824,-2772,1410,801,-975,1300
31915,4132,-2061,1143,523,-966,1307
31925,2952,-1112,1414,-92,-1063,1117
31935,2648,-1077,983,-374,-1312,1116
31945,3092,-1193,631,-912,-1490,1201
31955,3164,-2107,33,-1064,-1623,1112
31965,3460,-3198,-510,-1025,-1652,1182
31975,3853,-3648,-881,-842,-1372,1532
31985,4019,-4448,-1205,-313,-978,1775
31995,3891,-5513,-1118,116,-604,1980
32005,3965,-5987,-1287,382,-146,2327
32015,4020,-6356,-1577,622,344,2727
32025,3933,-7604,-1186,1173,709,3090
32035,3269,-7836,-1655,1825,896,3436
32045,3371,-7301,-816,2200,840,3520
32055,2124,-6228,-902,1380,213,3649
32065,1869,-5815,-1495,777,-253,3584
32075,2184,-6167,-3079,655,-568,3739
32085,3224,-6440,-4051,1271,-722,3682
32095,2962,-5473,-2830,1821,-954,3893
32105,2463,-5454,-2323,1587,-1481,4160
32115,3462,-6303,-2355,1357,-1818,4360
32126,3856,-8031,-1644,1612,-2005,4789
32136,4315,-8668,-966,1864,-2150,5247
32146,4403,-8979,-758,2093,-2416,5734
32156,5023,-10008,-790,2339,-2650,6284
32166,5590,-10284,-849,2754,-2773,6823
32176,5847,-10247,-741,3190,-2699,7334
32186,5921,-9757,-485,3364,-2578,7757
32196,5656,-8632,-695,3179,-2556,7911
32206,5839,-8170,-920,3277,-2478,7980
32216,5749,-6989,-784,3382,-2382,8005
32226,5432,-5956,-521,3569,-2396,7967
32236,5413,-5412,-249,3626,-2540,7911
32246,5495,-5563,-286,3859,-2709,7735
32256,5957,-5240,-661,4148,-2756,7417
32266,6058,-4223,-1147,4337,-2749,7206
32276,6213,-2835,-1438,4365,-2638,7044
32286,6183,-2124,-1764,4461,-2605,6929
32296,6222,-1284,-2058,4656,-2487,6590
32306,6195,495,-2544,4641,-2270,6167
32316,5808,2263,-2525,4526,-2148,5873
32327,5251,3457,-2401,4123,-2374,5662
32337,5059,3652,-2253,3841,-2726,5386
32347,5024,3597,-2286,3649,-3039,5005
32357,5119,4200,-2732,3626,-3330,4561
32367,5563,4727,-2782,3916,-3622,4136
32377,6409,5236,-2536,4249,-3904,3762
32387,7314,5989,-2010,4807,-4099,3506
32397,8298,7103,-1368,5128,-4262,3188
32407,9461,8125,-750,5178,-4412,2768
32417,10605,8989,166,4984,-4563,2283
32427,11343,10109,822,4629,-4654,1635
32437,11323,11104,1287,4048,-4841,878
32447,11396,11861,1428,3367,-4992,-89
32457,11899,11476,1171,2948,-5072,-1232
32467,12960,11703,1204,2488,-5271,-2527
32477,14068,12251,589,2495,-5882,-4293
32487,14295,14957,-1388,1659,-6815,-5834
32497,15543,16401,-2578,-85,-7617,-7919
32507,19151,15259,-3597,-2165,-8495,-10184
32517,25119,12693,-4581,-4548,-8780,-12596
32528,32757,7508,-3294,-6732,-8178,-14500
32538,-32768,1645,385,-8984,-7473,-16061
32548,-32768,-2602,3441,-12103,-6125,-18006
32558,-32768,-6063,3601,-15739,-4051,-19580
32568,-32768,-10047,1566,-19047,-1581,-19756
32578,-32768,-11248,-2045,-22418,1166,-18860
32588,31791,-7105,-3909,-25422,4151,-17341
32598,26277,-888,-4954,-28513,6262,-15612
32608,26780,-3217,-7861,-28438,6982,-12664
32618,31739,-31171,-28615,-4488,10985,-4355
32628,-1386,3596,20025,-3165,9188,-6231
32638,19863,14963,4382,-12771,6910,-9115
32648,23605,-23742,-4282,-8212,3604,2685
32658,15809,-15540,3285,-4883,7904,-2820
32668,18824,-3522,5325,-5886,9073,-1936
32678,15081,-9208,450,-7168,9048,830
32688,13133,-7999,-1008,-7533,8072,720
32698,10926,-7416,-547,-7393,7290,1762
32708,11113,-6787,-677,-7055,6727,2433
32718,12366,-7326,-2255,-5432,6085,3321
32729,11134,-7314,-1913,-3112,5373,3963
32739,9505,-4685,-1399,-1947,4985,4045
32749,8903,-4361,-1419,-1146,4660,3969
32759,8258,-4746,-2080,-22,4335,3938
32769,8727,-3271,-3333,862,4219,3773
32779,7531,-2919,-2958,419,3683,3536
32789,7035,-1935,-3092,87,3280,3096
32799,6590,-1527,-3583,99,2705,2916
32809,6791,-1913,-4375,515,2143,2934
32819,6375,-1879,-4938,1228,1791,3011
32829,5652,-1794,-4990,1757,1462,2998
32839,4734,-1696,-4982,2004,1104,2832
32849,3941,-1543,-5167,2250,803,2601
32859,3134,-1316,-5239,2482,594,2385
32869,2381,-1215,-5331,2693,412,2187
32879,1733,-1383,-5308,2873,231,1978
32889,1162,-1429,-5294,2989,36,1778
32899,771,-1402,-5268,2961,-122,1586
32909,489,-1047,-5353,2711,-317,1472
32919,153,-743,-5343,2450,-561,1384
32930,-271,-876,-5355,2295,-782,1310
32940,-737,-1318,-5082,2229,-957,1274
32950,-1163,-1464,-4811,2146,-1112,1234
32960,-1501,-1452,-4728,2098,-1285,1156
32970,-1703,-1530,-4526,1976,-1451,1026
32980,-1788,-1626,-4375,1742,-1577,986
32990,-1955,-1692,-4591,1538,-1673,896
33000,-1883,-1742,-4491,1188,-1713,749
33010,-2490,-1711,-4258,716,-1664,785
33020,-2869,-1826,-3986,333,-1737,697
33030,-3125,-1921,-3669,25,-1756,681
33040,-3496,-2152,-3379,-71,-1668,591
33050,-3499,-2489,-3513,74,-1842,525
33060,-3243,-2695,-3233,135,-2131,664
33070,-2824,-2743,-3023,232,-2267,694
33080,-2658,-2839,-2889,149,-2354,813
33090,-2880,-3088,-2471,-77,-2516,946
33100,-3259,-3652,-2353,-269,-2655,957
33110,-2827,-4852,-2184,-160,-3021,972
33120,-2134,-5859,-1536,-59,-3057,1093
33131,-1146,-6051,-857,112,-2823,1264
33141,-781,-5652,43,-16,-2492,1514
33151,-1243,-5317,789,-480,-2434,1714
33161,-1720,-5346,1053,-1246,-2517,1801
33171,-1607,-5696,1071,-1829,-2649,1833
33181,-1521,-6332,762,-2007,-2808,1868
33191,-1402,-7099,670,-1902,-2921,2012
33201,-1179,-7404,608,-1903,-2937,2291
33211,-949,-7872,865,-2004,-2991,2495
33221,-554,-8683,323,-1805,-3009,2539
33231,62,-8854,889,-1759,-2877,2974
33241,-387,-8142,925,-2120,-2958,3182
33251,-619,-8893,774,-1968,-3052,3232
33261,-290,-9713,999,-1745,-2972,3474
33271,-145,-9657,1110,-1446,-2835,3756
33282,-271,-9962,1497,-1391,-2731,4066
33292,100,-10501,1812,-1492,-2599,4312
33302,659,-10805,2136,-1687,-2378,4575
33312,1050,-11341,2688,-1845,-2224,4877
33322,1623,-12168,3387,-1774,-2050,5299
33332,2218,-13207,4322,-1752,-1955,5860
33342,2884,-13597,4808,-1650,-1884,6453
